<?xml version="1.0" encoding="UTF-8"?>

<Questionnaire xmlns="http://hl7.org/fhir">
  <id value="qs1"/>
  <contained>
    <ValueSet>
      <id value="vs2"/>
      <url value="urn:uuid:8097f77d-1aa1-4317-9404-e8de06831823"/>
      <name value="Type options for ClinicalImpression.problem"/>
      <description value="Type options for ClinicalImpression.problem"/>
      <status value="active"/>
      <expansion>
        <identifier value="urn:uuid:6d8f059a-f9c9-43fb-baa8-a2ddc71bafa9"/>
        <timestamp value="2015-03-23T23:59:18+00:00"/>
        <contains>
          <system value="http://hl7.org/fhir/resource-types"/>
          <code value="Condition"/>
          <display value="Condition"/>
        </contains>
        <contains>
          <system value="http://hl7.org/fhir/resource-types"/>
          <code value="AllergyIntolerance"/>
          <display value="AllergyIntolerance"/>
        </contains>
      </expansion>
    </ValueSet>
  </contained>
  <contained>
    <ValueSet>
      <id value="vs3"/>
      <url value="urn:uuid:0d84d0e6-987d-4e5b-81ba-f76c3f0f176c"/>
      <name value="Type options for ClinicalImpression.trigger[x]"/>
      <description value="Type options for ClinicalImpression.trigger[x]"/>
      <status value="active"/>
      <expansion>
        <identifier value="urn:uuid:afaef64c-54f5-4bdd-b993-a547c07d728d"/>
        <timestamp value="2015-03-23T23:59:18+00:00"/>
        <contains>
          <system value="http://hl7.org/fhir/data-types"/>
          <code value="CodeableConcept"/>
          <display value="CodeableConcept"/>
        </contains>
        <contains>
          <system value="http://hl7.org/fhir/resource-types"/>
          <code value="Resource"/>
          <display value="Resource"/>
        </contains>
      </expansion>
    </ValueSet>
  </contained>
  <contained>
    <ValueSet>
      <id value="vs4"/>
      <url value="urn:uuid:45630f29-f7db-498c-a5c9-152a28f5e8e3"/>
      <name value="Type options for ClinicalImpression.investigations.item"/>
      <description value="Type options for ClinicalImpression.investigations.item"/>
      <status value="active"/>
      <expansion>
        <identifier value="urn:uuid:273e696c-1e98-4d10-bfc7-f6a40047348d"/>
        <timestamp value="2015-03-23T23:59:18+00:00"/>
        <contains>
          <system value="http://hl7.org/fhir/resource-types"/>
          <code value="Observation"/>
          <display value="Observation"/>
        </contains>
        <contains>
          <system value="http://hl7.org/fhir/resource-types"/>
          <code value="QuestionnaireAnswers"/>
          <display value="QuestionnaireAnswers"/>
        </contains>
        <contains>
          <system value="http://hl7.org/fhir/resource-types"/>
          <code value="FamilyHistory"/>
          <display value="FamilyHistory"/>
        </contains>
        <contains>
          <system value="http://hl7.org/fhir/resource-types"/>
          <code value="DiagnosticReport"/>
          <display value="DiagnosticReport"/>
        </contains>
      </expansion>
    </ValueSet>
  </contained>
  <contained>
    <ValueSet>
      <id value="vs5"/>
      <url value="urn:uuid:b498be12-186f-400c-bf65-0094f94e26b1"/>
      <name value="Type options for ClinicalImpression.action"/>
      <description value="Type options for ClinicalImpression.action"/>
      <status value="active"/>
      <expansion>
        <identifier value="urn:uuid:0a1b11d2-a30f-41f9-ab16-0aae82d19898"/>
        <timestamp value="2015-03-23T23:59:18+00:00"/>
        <contains>
          <system value="http://hl7.org/fhir/resource-types"/>
          <code value="ReferralRequest"/>
          <display value="ReferralRequest"/>
        </contains>
        <contains>
          <system value="http://hl7.org/fhir/resource-types"/>
          <code value="ProcedureRequest"/>
          <display value="ProcedureRequest"/>
        </contains>
        <contains>
          <system value="http://hl7.org/fhir/resource-types"/>
          <code value="Procedure"/>
          <display value="Procedure"/>
        </contains>
        <contains>
          <system value="http://hl7.org/fhir/resource-types"/>
          <code value="MedicationPrescription"/>
          <display value="MedicationPrescription"/>
        </contains>
        <contains>
          <system value="http://hl7.org/fhir/resource-types"/>
          <code value="DiagnosticOrder"/>
          <display value="DiagnosticOrder"/>
        </contains>
        <contains>
          <system value="http://hl7.org/fhir/resource-types"/>
          <code value="NutritionOrder"/>
          <display value="NutritionOrder"/>
        </contains>
        <contains>
          <system value="http://hl7.org/fhir/resource-types"/>
          <code value="Supply"/>
          <display value="Supply"/>
        </contains>
        <contains>
          <system value="http://hl7.org/fhir/resource-types"/>
          <code value="Appointment"/>
          <display value="Appointment"/>
        </contains>
      </expansion>
    </ValueSet>
  </contained>
  <identifier>
    <system value="urn:ietf:rfc:3986"/>
  </identifier>
  <status value="draft"/>
  <date value="2015-03-23T23:56:59+00:00"/>
  <publisher value="HL7 FHIR Project (Patient Care)"/>
  <group>
    <extension url="http://hl7.org/fhir/Profile/questionnaire-extensions#flyover">
      <valueString value="A record of a clinical assessment performed to determine what problem(s) may affect the patient and before planning the treatments or management strategies that are best to manage a patient&#39;s condition. Assessments are often 1:1 with a clinical consultation / encounter,  but this varies greatly depending on the clinical workflow. This resource is called &quot;ClinicalImpression&quot; rather than &quot;ClinicalAssessment&quot; to avoid confusion with the recording of assessment tools such as Apgar score."/>
    </extension>
    <linkId value="ClinicalImpression"/>
    <title value="A clinical assessment performed when planning treatments and management strategies for a patient"/>
    <required value="true"/>
    <repeats value="false"/>
    <group>
      <extension url="http://hl7.org/fhir/Profile/questionnaire-extensions#flyover">
        <valueString value="The logical id of the resource, as used in the url for the resoure. Once assigned, this value never changes. The only time that a resource does not have an id is when it is being submitted to the server using a create operation. Bundles always have an id, though it is usually a generated UUID."/>
      </extension>
      <extension url="http://www.healthintersections.com.au/fhir/Profile/metadata#type">
        <valueString value="string"/>
      </extension>
      <linkId value="ClinicalImpression.id"/>
      <required value="false"/>
      <repeats value="true"/>
      <question>
        <linkId value="ClinicalImpression.id.value"/>
        <text value="Logical id of this artefact"/>
        <type value="string"/>
        <required value="false"/>
        <repeats value="false"/>
      </question>
    </group>
    <group>
      <extension url="http://hl7.org/fhir/Profile/questionnaire-extensions#flyover">
        <valueString value="The metadata about the resource. This is content that is maintained by the infrastructure. Changes to the content may not always be associated with version changes to the resource."/>
      </extension>
      <linkId value="ClinicalImpression.meta"/>
      <text value="Metadata about the resource"/>
      <required value="false"/>
      <repeats value="true"/>
    </group>
    <group>
      <extension url="http://hl7.org/fhir/Profile/questionnaire-extensions#flyover">
        <valueString value="A reference to a set of rules that were followed when the resource was constructed, and which must be understood when processing the content. Asserting this rule set restricts the content to be only understood by a limited set of trading partners. This inherently limits the usefulness of the data in the long term. However the existing health eco-system is highly fractured, and not yet ready to define, collect, and exchange data in a generally computable sense. Wherever possible, implementers and/or specification writers should avoid using this element as much as possible."/>
      </extension>
      <extension url="http://www.healthintersections.com.au/fhir/Profile/metadata#type">
        <valueString value="uri"/>
      </extension>
      <linkId value="ClinicalImpression.implicitRules"/>
      <required value="false"/>
      <repeats value="true"/>
      <question>
        <linkId value="ClinicalImpression.implicitRules.value"/>
        <text value="A set of rules under which this content was created"/>
        <type value="string"/>
        <required value="false"/>
        <repeats value="false"/>
      </question>
    </group>
    <group>
      <extension url="http://hl7.org/fhir/Profile/questionnaire-extensions#flyover">
        <valueString value="The base language in which the resource is written. Language is provided to support indexing and accessibility (typically, services such as text to speech use the language tag). The html language tag in the narrative applies  to the narrative. The language tag on the resource may be used to specify the language of other presentations generated from the data in the resource

Not all the content has to be in the base language. The Resource.language should not be assumed to apply to the narrative automatically. If a language is specified, it should it also be specified on the div element in the html (see rules in HTML5 for information about the relationship between xml:lang and the html lang attribute)."/>
      </extension>
      <extension url="http://www.healthintersections.com.au/fhir/Profile/metadata#type">
        <valueString value="code"/>
      </extension>
      <linkId value="ClinicalImpression.language"/>
      <required value="false"/>
      <repeats value="true"/>
      <question>
        <linkId value="ClinicalImpression.language.value"/>
        <text value="language"/>
        <type value="choice"/>
        <required value="false"/>
        <repeats value="false"/>
      </question>
    </group>
    <group>
      <extension url="http://hl7.org/fhir/Profile/questionnaire-extensions#flyover">
        <valueString value="A human-readable narrative that contains a summary of the resource, and may be used to represent the content of the resource to a human. The narrative need not encode all the structured data, but is required to contain sufficient detail to make it &quot;clinically safe&quot; for a human to just read the narrative. Resource definitions may define what content should be represented in the narrative to ensure clinical safety. Contained resources do not have narrative. Resources that are not contained SHOULD have a narrative."/>
      </extension>
      <linkId value="ClinicalImpression.text"/>
      <text value="Text summary of the resource, for human interpretation"/>
      <required value="false"/>
      <repeats value="true"/>
    </group>
    <group>
      <extension url="http://hl7.org/fhir/Profile/questionnaire-extensions#flyover">
        <valueString value="These resources do not have an independent existence apart from the resource that contains them - they cannot be identified independently, and nor can they have their own independent transaction scope. This should never be done when the content can be identified properly, as once identification is lost, it is extremely difficult (and context dependent) to restore it again."/>
      </extension>
      <linkId value="ClinicalImpression.contained"/>
      <text value="Contained, inline Resources"/>
      <required value="false"/>
      <repeats value="true"/>
    </group>
    <group>
      <extension url="http://hl7.org/fhir/Profile/questionnaire-extensions#flyover">
        <valueString value="The patient being asssesed."/>
      </extension>
      <extension url="http://www.healthintersections.com.au/fhir/Profile/metadata#type">
        <valueString value="Reference"/>
      </extension>
      <linkId value="ClinicalImpression.patient"/>
      <required value="true"/>
      <repeats value="true"/>
      <question>
        <extension url="http://www.healthintersections.com.au/fhir/Profile/metadata#reference">
          <valueString value="/Patient?subject=$subj&amp;patient=$subj&amp;encounter=$encounter"/>
        </extension>
        <linkId value="ClinicalImpression.patient.value"/>
        <text value="The patient being asssesed"/>
        <type value="reference"/>
        <required value="false"/>
        <repeats value="false"/>
      </question>
    </group>
    <group>
      <extension url="http://hl7.org/fhir/Profile/questionnaire-extensions#flyover">
        <valueString value="The clinician performing the assessment."/>
      </extension>
      <extension url="http://www.healthintersections.com.au/fhir/Profile/metadata#type">
        <valueString value="Reference"/>
      </extension>
      <linkId value="ClinicalImpression.assessor"/>
      <required value="true"/>
      <repeats value="true"/>
      <question>
        <extension url="http://www.healthintersections.com.au/fhir/Profile/metadata#reference">
          <valueString value="/Practitioner?subject=$subj&amp;patient=$subj&amp;encounter=$encounter"/>
        </extension>
        <linkId value="ClinicalImpression.assessor.value"/>
        <text value="The clinician performing the assessment"/>
        <type value="reference"/>
        <required value="false"/>
        <repeats value="false"/>
      </question>
    </group>
    <group>
      <extension url="http://hl7.org/fhir/Profile/questionnaire-extensions#flyover">
        <valueString value="The point in time at which the assessment was concluded (not when it was recorded). This SHOULD be accurate to at least the minute, though some assessments only have a known date."/>
      </extension>
      <extension url="http://www.healthintersections.com.au/fhir/Profile/metadata#type">
        <valueString value="datetime"/>
      </extension>
      <linkId value="ClinicalImpression.date"/>
      <required value="true"/>
      <repeats value="true"/>
      <question>
        <linkId value="ClinicalImpression.date.value"/>
        <text value="When the assessment occurred"/>
        <type value="dateTime"/>
        <required value="false"/>
        <repeats value="false"/>
      </question>
    </group>
    <group>
      <extension url="http://hl7.org/fhir/Profile/questionnaire-extensions#flyover">
        <valueString value="A summary of the context and/or cause of the assessment - why / where was it peformed, and what patient events/sstatus prompted it."/>
      </extension>
      <extension url="http://www.healthintersections.com.au/fhir/Profile/metadata#type">
        <valueString value="string"/>
      </extension>
      <linkId value="ClinicalImpression.description"/>
      <required value="false"/>
      <repeats value="true"/>
      <question>
        <linkId value="ClinicalImpression.description.value"/>
        <text value="Why/how the assessment was performed"/>
        <type value="string"/>
        <required value="false"/>
        <repeats value="false"/>
      </question>
    </group>
    <group>
      <extension url="http://hl7.org/fhir/Profile/questionnaire-extensions#flyover">
        <valueString value="A reference to the last assesment that was conducted bon this patient. Assessments are often/usually ongoing in nature; a care provider (practitioner or team) will make new assessments on an ongoing basis as new data arises or the patient&#39;s conditions changes. It is always likely that multiple previous assessments exist for a patient. The point of quoting a previous assessment is that this assessment is relative to it (see resolved)."/>
      </extension>
      <extension url="http://www.healthintersections.com.au/fhir/Profile/metadata#type">
        <valueString value="Reference"/>
      </extension>
      <linkId value="ClinicalImpression.previous"/>
      <required value="false"/>
      <repeats value="true"/>
      <question>
        <extension url="http://www.healthintersections.com.au/fhir/Profile/metadata#reference">
          <valueString value="/ClinicalImpression?subject=$subj&amp;patient=$subj&amp;encounter=$encounter"/>
        </extension>
        <linkId value="ClinicalImpression.previous.value"/>
        <text value="Reference to last assessment"/>
        <type value="reference"/>
        <required value="false"/>
        <repeats value="false"/>
      </question>
    </group>
    <group>
      <extension url="http://hl7.org/fhir/Profile/questionnaire-extensions#flyover">
        <valueString value="This a list of the general problems/conditions for a patient. e.g. The patient is a pregnant, and cardiac congestive failure, ‎Adenocarcinoma, and is allergic to penicillin."/>
      </extension>
      <linkId value="ClinicalImpression.problem"/>
      <text value="General assessment of patient state"/>
      <required value="false"/>
      <repeats value="true"/>
      <question>
        <linkId value="ClinicalImpression.problem._type"/>
        <text value="type"/>
        <type value="choice"/>
        <required value="false"/>
        <repeats value="false"/>
        <options>
          <reference value="#vs2"/>
        </options>
        <group>
          <extension url="http://www.healthintersections.com.au/fhir/Profile/metadata#type">
            <valueString value="Reference"/>
          </extension>
          <linkId value="ClinicalImpression.problem._Condition"/>
          <question>
            <extension url="http://www.healthintersections.com.au/fhir/Profile/metadata#reference">
              <valueString value="/Condition?subject=$subj&amp;patient=$subj&amp;encounter=$encounter"/>
            </extension>
            <linkId value="ClinicalImpression.problem._Condition.value"/>
            <text value="Condition"/>
            <type value="reference"/>
            <required value="false"/>
            <repeats value="false"/>
          </question>
        </group>
        <group>
          <extension url="http://www.healthintersections.com.au/fhir/Profile/metadata#type">
            <valueString value="Reference"/>
          </extension>
          <linkId value="ClinicalImpression.problem._AllergyIntolerance"/>
          <question>
            <extension url="http://www.healthintersections.com.au/fhir/Profile/metadata#reference">
              <valueString value="/AllergyIntolerance?subject=$subj&amp;patient=$subj&amp;encounter=$encounter"/>
            </extension>
            <linkId value="ClinicalImpression.problem._AllergyIntolerance.value"/>
            <text value="AllergyIntolerance"/>
            <type value="reference"/>
            <required value="false"/>
            <repeats value="false"/>
          </question>
        </group>
      </question>
    </group>
    <group>
      <extension url="http://hl7.org/fhir/Profile/questionnaire-extensions#flyover">
        <valueString value="The request or event that necessitated this assessment. This may be a diagnosis, a Care Plan, a Request Referral, or some other resource."/>
      </extension>
      <linkId value="ClinicalImpression.trigger[x]"/>
      <text value="Request or event that necessitated this assessment"/>
      <required value="false"/>
      <repeats value="true"/>
      <question>
        <linkId value="ClinicalImpression.trigger[x]._type"/>
        <text value="type"/>
        <type value="choice"/>
        <required value="false"/>
        <repeats value="false"/>
        <options>
          <reference value="#vs3"/>
        </options>
        <group>
          <extension url="http://www.healthintersections.com.au/fhir/Profile/metadata#type">
            <valueString value="CodeableConcept"/>
          </extension>
          <linkId value="ClinicalImpression.trigger[x]._CodeableConcept"/>
          <text value="CodeableConcept"/>
          <question>
            <linkId value="ClinicalImpression.trigger[x]._CodeableConcept.coding"/>
            <text value="code:"/>
            <type value="open-choice"/>
            <required value="false"/>
            <repeats value="false"/>
          </question>
          <question>
            <linkId value="ClinicalImpression.trigger[x]._CodeableConcept.text"/>
            <text value="text:"/>
            <type value="string"/>
            <required value="false"/>
            <repeats value="false"/>
          </question>
        </group>
        <group>
          <extension url="http://www.healthintersections.com.au/fhir/Profile/metadata#type">
            <valueString value="Reference"/>
          </extension>
          <linkId value="ClinicalImpression.trigger[x]._Resource"/>
          <question>
            <extension url="http://www.healthintersections.com.au/fhir/Profile/metadata#reference">
              <valueString value="/Resource?subject=$subj&amp;patient=$subj&amp;encounter=$encounter"/>
            </extension>
            <linkId value="ClinicalImpression.trigger[x]._Resource.value"/>
            <text value="Resource"/>
            <type value="reference"/>
            <required value="false"/>
            <repeats value="false"/>
          </question>
        </group>
      </question>
    </group>
    <group>
      <extension url="http://hl7.org/fhir/Profile/questionnaire-extensions#flyover">
        <valueString value="One or more sets of investigations (signs, symptions, etc). The actual grouping of investigations vary greatly depending on the type and context of the assessment. These investigations may include data generated during the assessment process, or data previously generated and recorded that is pertinent to the outcomes."/>
      </extension>
      <linkId value="ClinicalImpression.investigations"/>
      <title value="One or more sets of investigations (signs, symptions, etc)"/>
      <required value="false"/>
      <repeats value="true"/>
      <group>
        <extension url="http://hl7.org/fhir/Profile/questionnaire-extensions#flyover">
          <valueString value="unique id for the element within a resource (for internal references)."/>
        </extension>
        <extension url="http://www.healthintersections.com.au/fhir/Profile/metadata#type">
          <valueString value="string"/>
        </extension>
        <linkId value="ClinicalImpression.investigations.id"/>
        <required value="false"/>
        <repeats value="true"/>
        <question>
          <linkId value="ClinicalImpression.investigations.id.value"/>
          <text value="xml:id (or equivalent in JSON)"/>
          <type value="string"/>
          <required value="false"/>
          <repeats value="false"/>
        </question>
      </group>
      <group>
        <extension url="http://hl7.org/fhir/Profile/questionnaire-extensions#flyover">
          <valueString value="A name/code for the group (&quot;set&quot;) of investigations. Typically, this will be something like &quot;signs&quot;, &quot;symptoms&quot;, &quot;clinical&quot;, &quot;diagnostic&quot;, but the list is not constrained, and others such groups such as (exposure|family|travel|nutitirional) history may be used."/>
        </extension>
        <extension url="http://www.healthintersections.com.au/fhir/Profile/metadata#type">
          <valueString value="CodeableConcept"/>
        </extension>
        <linkId value="ClinicalImpression.investigations.code"/>
        <text value="A name/code for the set"/>
        <required value="true"/>
        <repeats value="true"/>
        <question>
          <linkId value="ClinicalImpression.investigations.code.coding"/>
          <text value="code:"/>
          <type value="open-choice"/>
          <required value="false"/>
          <repeats value="false"/>
        </question>
        <question>
          <linkId value="ClinicalImpression.investigations.code.text"/>
          <text value="text:"/>
          <type value="string"/>
          <required value="false"/>
          <repeats value="false"/>
        </question>
      </group>
      <group>
        <extension url="http://hl7.org/fhir/Profile/questionnaire-extensions#flyover">
          <valueString value="A record of a specific investigation that was undertaken. Most investigations are observations of one kind of or another but some other specific types of data collection resources can also be used."/>
        </extension>
        <linkId value="ClinicalImpression.investigations.item"/>
        <text value="Record of a specific investigation"/>
        <required value="false"/>
        <repeats value="true"/>
        <question>
          <linkId value="ClinicalImpression.investigations.item._type"/>
          <text value="type"/>
          <type value="choice"/>
          <required value="false"/>
          <repeats value="false"/>
          <options>
            <reference value="#vs4"/>
          </options>
          <group>
            <extension url="http://www.healthintersections.com.au/fhir/Profile/metadata#type">
              <valueString value="Reference"/>
            </extension>
            <linkId value="ClinicalImpression.investigations.item._Observation"/>
            <question>
              <extension url="http://www.healthintersections.com.au/fhir/Profile/metadata#reference">
                <valueString value="/Observation?subject=$subj&amp;patient=$subj&amp;encounter=$encounter"/>
              </extension>
              <linkId value="ClinicalImpression.investigations.item._Observation.value"/>
              <text value="Observation"/>
              <type value="reference"/>
              <required value="false"/>
              <repeats value="false"/>
            </question>
          </group>
          <group>
            <extension url="http://www.healthintersections.com.au/fhir/Profile/metadata#type">
              <valueString value="Reference"/>
            </extension>
            <linkId value="ClinicalImpression.investigations.item._QuestionnaireAnswers"/>
            <question>
              <extension url="http://www.healthintersections.com.au/fhir/Profile/metadata#reference">
                <valueString value="/QuestionnaireAnswers?subject=$subj&amp;patient=$subj&amp;encounter=$encounter"/>
              </extension>
              <linkId value="ClinicalImpression.investigations.item._QuestionnaireAnswers.value"/>
              <text value="QuestionnaireAnswers"/>
              <type value="reference"/>
              <required value="false"/>
              <repeats value="false"/>
            </question>
          </group>
          <group>
            <extension url="http://www.healthintersections.com.au/fhir/Profile/metadata#type">
              <valueString value="Reference"/>
            </extension>
            <linkId value="ClinicalImpression.investigations.item._FamilyHistory"/>
            <question>
              <extension url="http://www.healthintersections.com.au/fhir/Profile/metadata#reference">
                <valueString value="/FamilyHistory?subject=$subj&amp;patient=$subj&amp;encounter=$encounter"/>
              </extension>
              <linkId value="ClinicalImpression.investigations.item._FamilyHistory.value"/>
              <text value="FamilyHistory"/>
              <type value="reference"/>
              <required value="false"/>
              <repeats value="false"/>
            </question>
          </group>
          <group>
            <extension url="http://www.healthintersections.com.au/fhir/Profile/metadata#type">
              <valueString value="Reference"/>
            </extension>
            <linkId value="ClinicalImpression.investigations.item._DiagnosticReport"/>
            <question>
              <extension url="http://www.healthintersections.com.au/fhir/Profile/metadata#reference">
                <valueString value="/DiagnosticReport?subject=$subj&amp;patient=$subj&amp;encounter=$encounter"/>
              </extension>
              <linkId value="ClinicalImpression.investigations.item._DiagnosticReport.value"/>
              <text value="DiagnosticReport"/>
              <type value="reference"/>
              <required value="false"/>
              <repeats value="false"/>
            </question>
          </group>
        </question>
      </group>
    </group>
    <group>
      <extension url="http://hl7.org/fhir/Profile/questionnaire-extensions#flyover">
        <valueString value="Reference to a specific published clinical protocol that was followed during this assessment, and/or that provides evidence in support of the diagnosis."/>
      </extension>
      <extension url="http://www.healthintersections.com.au/fhir/Profile/metadata#type">
        <valueString value="uri"/>
      </extension>
      <linkId value="ClinicalImpression.protocol"/>
      <required value="false"/>
      <repeats value="true"/>
      <question>
        <linkId value="ClinicalImpression.protocol.value"/>
        <text value="Clinical Protocol followed"/>
        <type value="string"/>
        <required value="false"/>
        <repeats value="false"/>
      </question>
    </group>
    <group>
      <extension url="http://hl7.org/fhir/Profile/questionnaire-extensions#flyover">
        <valueString value="A text summary of the investigations and the diagnosis."/>
      </extension>
      <extension url="http://www.healthintersections.com.au/fhir/Profile/metadata#type">
        <valueString value="string"/>
      </extension>
      <linkId value="ClinicalImpression.summary"/>
      <required value="false"/>
      <repeats value="true"/>
      <question>
        <linkId value="ClinicalImpression.summary.value"/>
        <text value="Summary of the assessment"/>
        <type value="string"/>
        <required value="false"/>
        <repeats value="false"/>
      </question>
    </group>
    <group>
      <extension url="http://hl7.org/fhir/Profile/questionnaire-extensions#flyover">
        <valueString value="Specific findings or diagnoses that was considered likely or relevant to ongoing treatment."/>
      </extension>
      <linkId value="ClinicalImpression.finding"/>
      <title value="Possible or likely findings and diagnoses"/>
      <required value="false"/>
      <repeats value="true"/>
      <group>
        <extension url="http://hl7.org/fhir/Profile/questionnaire-extensions#flyover">
          <valueString value="unique id for the element within a resource (for internal references)."/>
        </extension>
        <extension url="http://www.healthintersections.com.au/fhir/Profile/metadata#type">
          <valueString value="string"/>
        </extension>
        <linkId value="ClinicalImpression.finding.id"/>
        <required value="false"/>
        <repeats value="true"/>
        <question>
          <linkId value="ClinicalImpression.finding.id.value"/>
          <text value="xml:id (or equivalent in JSON)"/>
          <type value="string"/>
          <required value="false"/>
          <repeats value="false"/>
        </question>
      </group>
      <group>
        <extension url="http://hl7.org/fhir/Profile/questionnaire-extensions#flyover">
          <valueString value="Specific text of code for finding or diagnosis."/>
        </extension>
        <extension url="http://www.healthintersections.com.au/fhir/Profile/metadata#type">
          <valueString value="CodeableConcept"/>
        </extension>
        <linkId value="ClinicalImpression.finding.item"/>
        <text value="Specific text or code for finding"/>
        <required value="true"/>
        <repeats value="true"/>
        <question>
          <linkId value="ClinicalImpression.finding.item.coding"/>
          <text value="code:"/>
          <type value="open-choice"/>
          <required value="false"/>
          <repeats value="false"/>
        </question>
        <question>
          <linkId value="ClinicalImpression.finding.item.text"/>
          <text value="text:"/>
          <type value="string"/>
          <required value="false"/>
          <repeats value="false"/>
        </question>
      </group>
      <group>
        <extension url="http://hl7.org/fhir/Profile/questionnaire-extensions#flyover">
          <valueString value="Which investigations support finding or diagnosis."/>
        </extension>
        <extension url="http://www.healthintersections.com.au/fhir/Profile/metadata#type">
          <valueString value="string"/>
        </extension>
        <linkId value="ClinicalImpression.finding.cause"/>
        <required value="false"/>
        <repeats value="true"/>
        <question>
          <linkId value="ClinicalImpression.finding.cause.value"/>
          <text value="Which investigations support finding"/>
          <type value="string"/>
          <required value="false"/>
          <repeats value="false"/>
        </question>
      </group>
    </group>
    <group>
      <extension url="http://hl7.org/fhir/Profile/questionnaire-extensions#flyover">
        <valueString value="Diagnoses/conditions resolved since the last assessment."/>
      </extension>
      <extension url="http://www.healthintersections.com.au/fhir/Profile/metadata#type">
        <valueString value="CodeableConcept"/>
      </extension>
      <linkId value="ClinicalImpression.resolved"/>
      <text value="Diagnosies/conditions resolved since previous assessment"/>
      <required value="false"/>
      <repeats value="true"/>
      <question>
        <linkId value="ClinicalImpression.resolved.coding"/>
        <text value="code:"/>
        <type value="open-choice"/>
        <required value="false"/>
        <repeats value="false"/>
      </question>
      <question>
        <linkId value="ClinicalImpression.resolved.text"/>
        <text value="text:"/>
        <type value="string"/>
        <required value="false"/>
        <repeats value="false"/>
      </question>
    </group>
    <group>
      <extension url="http://hl7.org/fhir/Profile/questionnaire-extensions#flyover">
        <valueString value="Diagnosis considered not possible."/>
      </extension>
      <linkId value="ClinicalImpression.ruledOut"/>
      <title value="Diagnosis considered not possible"/>
      <required value="false"/>
      <repeats value="true"/>
      <group>
        <extension url="http://hl7.org/fhir/Profile/questionnaire-extensions#flyover">
          <valueString value="unique id for the element within a resource (for internal references)."/>
        </extension>
        <extension url="http://www.healthintersections.com.au/fhir/Profile/metadata#type">
          <valueString value="string"/>
        </extension>
        <linkId value="ClinicalImpression.ruledOut.id"/>
        <required value="false"/>
        <repeats value="true"/>
        <question>
          <linkId value="ClinicalImpression.ruledOut.id.value"/>
          <text value="xml:id (or equivalent in JSON)"/>
          <type value="string"/>
          <required value="false"/>
          <repeats value="false"/>
        </question>
      </group>
      <group>
        <extension url="http://hl7.org/fhir/Profile/questionnaire-extensions#flyover">
          <valueString value="Specific text of code for diagnosis."/>
        </extension>
        <extension url="http://www.healthintersections.com.au/fhir/Profile/metadata#type">
          <valueString value="CodeableConcept"/>
        </extension>
        <linkId value="ClinicalImpression.ruledOut.item"/>
        <text value="Specific text of code for diagnosis"/>
        <required value="true"/>
        <repeats value="true"/>
        <question>
          <linkId value="ClinicalImpression.ruledOut.item.coding"/>
          <text value="code:"/>
          <type value="open-choice"/>
          <required value="false"/>
          <repeats value="false"/>
        </question>
        <question>
          <linkId value="ClinicalImpression.ruledOut.item.text"/>
          <text value="text:"/>
          <type value="string"/>
          <required value="false"/>
          <repeats value="false"/>
        </question>
      </group>
      <group>
        <extension url="http://hl7.org/fhir/Profile/questionnaire-extensions#flyover">
          <valueString value="Grounds for elimination."/>
        </extension>
        <extension url="http://www.healthintersections.com.au/fhir/Profile/metadata#type">
          <valueString value="string"/>
        </extension>
        <linkId value="ClinicalImpression.ruledOut.reason"/>
        <required value="false"/>
        <repeats value="true"/>
        <question>
          <linkId value="ClinicalImpression.ruledOut.reason.value"/>
          <text value="Grounds for elimination"/>
          <type value="string"/>
          <required value="false"/>
          <repeats value="false"/>
        </question>
      </group>
    </group>
    <group>
      <extension url="http://hl7.org/fhir/Profile/questionnaire-extensions#flyover">
        <valueString value="Estimate of likely outcome."/>
      </extension>
      <extension url="http://www.healthintersections.com.au/fhir/Profile/metadata#type">
        <valueString value="string"/>
      </extension>
      <linkId value="ClinicalImpression.prognosis"/>
      <required value="false"/>
      <repeats value="true"/>
      <question>
        <linkId value="ClinicalImpression.prognosis.value"/>
        <text value="Estimate of likely outcome"/>
        <type value="string"/>
        <required value="false"/>
        <repeats value="false"/>
      </question>
    </group>
    <group>
      <extension url="http://hl7.org/fhir/Profile/questionnaire-extensions#flyover">
        <valueString value="Plan of action after assessment."/>
      </extension>
      <extension url="http://www.healthintersections.com.au/fhir/Profile/metadata#type">
        <valueString value="Reference"/>
      </extension>
      <linkId value="ClinicalImpression.plan"/>
      <required value="false"/>
      <repeats value="true"/>
      <question>
        <extension url="http://www.healthintersections.com.au/fhir/Profile/metadata#reference">
          <valueString value="/CarePlan?subject=$subj&amp;patient=$subj&amp;encounter=$encounter"/>
        </extension>
        <linkId value="ClinicalImpression.plan.value"/>
        <text value="Plan of action after assessment"/>
        <type value="reference"/>
        <required value="false"/>
        <repeats value="false"/>
      </question>
    </group>
    <group>
      <extension url="http://hl7.org/fhir/Profile/questionnaire-extensions#flyover">
        <valueString value="Actions taken during assessment."/>
      </extension>
      <linkId value="ClinicalImpression.action"/>
      <text value="Actions taken during assessment"/>
      <required value="false"/>
      <repeats value="true"/>
      <question>
        <linkId value="ClinicalImpression.action._type"/>
        <text value="type"/>
        <type value="choice"/>
        <required value="false"/>
        <repeats value="false"/>
        <options>
          <reference value="#vs5"/>
        </options>
        <group>
          <extension url="http://www.healthintersections.com.au/fhir/Profile/metadata#type">
            <valueString value="Reference"/>
          </extension>
          <linkId value="ClinicalImpression.action._ReferralRequest"/>
          <question>
            <extension url="http://www.healthintersections.com.au/fhir/Profile/metadata#reference">
              <valueString value="/ReferralRequest?subject=$subj&amp;patient=$subj&amp;encounter=$encounter"/>
            </extension>
            <linkId value="ClinicalImpression.action._ReferralRequest.value"/>
            <text value="ReferralRequest"/>
            <type value="reference"/>
            <required value="false"/>
            <repeats value="false"/>
          </question>
        </group>
        <group>
          <extension url="http://www.healthintersections.com.au/fhir/Profile/metadata#type">
            <valueString value="Reference"/>
          </extension>
          <linkId value="ClinicalImpression.action._ProcedureRequest"/>
          <question>
            <extension url="http://www.healthintersections.com.au/fhir/Profile/metadata#reference">
              <valueString value="/ProcedureRequest?subject=$subj&amp;patient=$subj&amp;encounter=$encounter"/>
            </extension>
            <linkId value="ClinicalImpression.action._ProcedureRequest.value"/>
            <text value="ProcedureRequest"/>
            <type value="reference"/>
            <required value="false"/>
            <repeats value="false"/>
          </question>
        </group>
        <group>
          <extension url="http://www.healthintersections.com.au/fhir/Profile/metadata#type">
            <valueString value="Reference"/>
          </extension>
          <linkId value="ClinicalImpression.action._Procedure"/>
          <question>
            <extension url="http://www.healthintersections.com.au/fhir/Profile/metadata#reference">
              <valueString value="/Procedure?subject=$subj&amp;patient=$subj&amp;encounter=$encounter"/>
            </extension>
            <linkId value="ClinicalImpression.action._Procedure.value"/>
            <text value="Procedure"/>
            <type value="reference"/>
            <required value="false"/>
            <repeats value="false"/>
          </question>
        </group>
        <group>
          <extension url="http://www.healthintersections.com.au/fhir/Profile/metadata#type">
            <valueString value="Reference"/>
          </extension>
          <linkId value="ClinicalImpression.action._MedicationPrescription"/>
          <question>
            <extension url="http://www.healthintersections.com.au/fhir/Profile/metadata#reference">
              <valueString value="/MedicationPrescription?subject=$subj&amp;patient=$subj&amp;encounter=$encounter"/>
            </extension>
            <linkId value="ClinicalImpression.action._MedicationPrescription.value"/>
            <text value="MedicationPrescription"/>
            <type value="reference"/>
            <required value="false"/>
            <repeats value="false"/>
          </question>
        </group>
        <group>
          <extension url="http://www.healthintersections.com.au/fhir/Profile/metadata#type">
            <valueString value="Reference"/>
          </extension>
          <linkId value="ClinicalImpression.action._DiagnosticOrder"/>
          <question>
            <extension url="http://www.healthintersections.com.au/fhir/Profile/metadata#reference">
              <valueString value="/DiagnosticOrder?subject=$subj&amp;patient=$subj&amp;encounter=$encounter"/>
            </extension>
            <linkId value="ClinicalImpression.action._DiagnosticOrder.value"/>
            <text value="DiagnosticOrder"/>
            <type value="reference"/>
            <required value="false"/>
            <repeats value="false"/>
          </question>
        </group>
        <group>
          <extension url="http://www.healthintersections.com.au/fhir/Profile/metadata#type">
            <valueString value="Reference"/>
          </extension>
          <linkId value="ClinicalImpression.action._NutritionOrder"/>
          <question>
            <extension url="http://www.healthintersections.com.au/fhir/Profile/metadata#reference">
              <valueString value="/NutritionOrder?subject=$subj&amp;patient=$subj&amp;encounter=$encounter"/>
            </extension>
            <linkId value="ClinicalImpression.action._NutritionOrder.value"/>
            <text value="NutritionOrder"/>
            <type value="reference"/>
            <required value="false"/>
            <repeats value="false"/>
          </question>
        </group>
        <group>
          <extension url="http://www.healthintersections.com.au/fhir/Profile/metadata#type">
            <valueString value="Reference"/>
          </extension>
          <linkId value="ClinicalImpression.action._Supply"/>
          <question>
            <extension url="http://www.healthintersections.com.au/fhir/Profile/metadata#reference">
              <valueString value="/Supply?subject=$subj&amp;patient=$subj&amp;encounter=$encounter"/>
            </extension>
            <linkId value="ClinicalImpression.action._Supply.value"/>
            <text value="Supply"/>
            <type value="reference"/>
            <required value="false"/>
            <repeats value="false"/>
          </question>
        </group>
        <group>
          <extension url="http://www.healthintersections.com.au/fhir/Profile/metadata#type">
            <valueString value="Reference"/>
          </extension>
          <linkId value="ClinicalImpression.action._Appointment"/>
          <question>
            <extension url="http://www.healthintersections.com.au/fhir/Profile/metadata#reference">
              <valueString value="/Appointment?subject=$subj&amp;patient=$subj&amp;encounter=$encounter"/>
            </extension>
            <linkId value="ClinicalImpression.action._Appointment.value"/>
            <text value="Appointment"/>
            <type value="reference"/>
            <required value="false"/>
            <repeats value="false"/>
          </question>
        </group>
      </question>
    </group>
  </group>
</Questionnaire>