<?xml version="1.0" encoding="UTF-8"?>

<Questionnaire xmlns="http://hl7.org/fhir">
  <id value="qs1"/>
  <contained>
    <ValueSet>
      <id value="vs2"/>
      <url value="urn:uuid:c606e23e-7953-4c97-854e-d03bb9f0d639"/>
      <name value="Type options for DocumentReference.subject"/>
      <description value="Type options for DocumentReference.subject"/>
      <status value="active"/>
      <expansion>
        <identifier value="urn:uuid:5c741b61-1248-46d0-863f-3d33ece2bb20"/>
        <timestamp value="2015-03-24T00:00:41+00:00"/>
        <contains>
          <system value="http://hl7.org/fhir/resource-types"/>
          <code value="Patient"/>
          <display value="Patient"/>
        </contains>
        <contains>
          <system value="http://hl7.org/fhir/resource-types"/>
          <code value="Practitioner"/>
          <display value="Practitioner"/>
        </contains>
        <contains>
          <system value="http://hl7.org/fhir/resource-types"/>
          <code value="Group"/>
          <display value="Group"/>
        </contains>
        <contains>
          <system value="http://hl7.org/fhir/resource-types"/>
          <code value="Device"/>
          <display value="Device"/>
        </contains>
      </expansion>
    </ValueSet>
  </contained>
  <contained>
    <ValueSet>
      <id value="vs3"/>
      <url value="urn:uuid:b8abfe1e-8e9b-44ce-8567-c211b51b5ce5"/>
      <name value="Type options for DocumentReference.author"/>
      <description value="Type options for DocumentReference.author"/>
      <status value="active"/>
      <expansion>
        <identifier value="urn:uuid:7900a587-aa78-4203-9bbc-55a28bfa2205"/>
        <timestamp value="2015-03-24T00:00:41+00:00"/>
        <contains>
          <system value="http://hl7.org/fhir/resource-types"/>
          <code value="Practitioner"/>
          <display value="Practitioner"/>
        </contains>
        <contains>
          <system value="http://hl7.org/fhir/resource-types"/>
          <code value="Organization"/>
          <display value="Organization"/>
        </contains>
        <contains>
          <system value="http://hl7.org/fhir/resource-types"/>
          <code value="Device"/>
          <display value="Device"/>
        </contains>
        <contains>
          <system value="http://hl7.org/fhir/resource-types"/>
          <code value="Patient"/>
          <display value="Patient"/>
        </contains>
        <contains>
          <system value="http://hl7.org/fhir/resource-types"/>
          <code value="RelatedPerson"/>
          <display value="RelatedPerson"/>
        </contains>
      </expansion>
    </ValueSet>
  </contained>
  <contained>
    <ValueSet>
      <id value="vs4"/>
      <url value="urn:uuid:8f895b54-0907-4fb8-95c9-46c192f68d68"/>
      <name value="Type options for DocumentReference.authenticator"/>
      <description value="Type options for DocumentReference.authenticator"/>
      <status value="active"/>
      <expansion>
        <identifier value="urn:uuid:9a78fa28-eaf5-4a18-a212-927676af66ed"/>
        <timestamp value="2015-03-24T00:00:41+00:00"/>
        <contains>
          <system value="http://hl7.org/fhir/resource-types"/>
          <code value="Practitioner"/>
          <display value="Practitioner"/>
        </contains>
        <contains>
          <system value="http://hl7.org/fhir/resource-types"/>
          <code value="Organization"/>
          <display value="Organization"/>
        </contains>
      </expansion>
    </ValueSet>
  </contained>
  <identifier>
    <system value="urn:ietf:rfc:3986"/>
  </identifier>
  <status value="draft"/>
  <date value="2015-03-23T23:56:59+00:00"/>
  <publisher value="HL7 FHIR Project (FHIR Management Group)"/>
  <group>
    <extension url="http://hl7.org/fhir/Profile/questionnaire-extensions#flyover">
      <valueString value="A reference to a document."/>
    </extension>
    <linkId value="DocumentReference"/>
    <title value="A reference to a document"/>
    <text value="Usually, this is used for documents other than those defined by FHIR."/>
    <required value="true"/>
    <repeats value="false"/>
    <group>
      <extension url="http://hl7.org/fhir/Profile/questionnaire-extensions#flyover">
        <valueString value="The logical id of the resource, as used in the url for the resoure. Once assigned, this value never changes. The only time that a resource does not have an id is when it is being submitted to the server using a create operation. Bundles always have an id, though it is usually a generated UUID."/>
      </extension>
      <extension url="http://www.healthintersections.com.au/fhir/Profile/metadata#type">
        <valueString value="string"/>
      </extension>
      <linkId value="DocumentReference.id"/>
      <required value="false"/>
      <repeats value="true"/>
      <question>
        <linkId value="DocumentReference.id.value"/>
        <text value="Logical id of this artefact"/>
        <type value="string"/>
        <required value="false"/>
        <repeats value="false"/>
      </question>
    </group>
    <group>
      <extension url="http://hl7.org/fhir/Profile/questionnaire-extensions#flyover">
        <valueString value="The metadata about the resource. This is content that is maintained by the infrastructure. Changes to the content may not always be associated with version changes to the resource."/>
      </extension>
      <linkId value="DocumentReference.meta"/>
      <text value="Metadata about the resource"/>
      <required value="false"/>
      <repeats value="true"/>
    </group>
    <group>
      <extension url="http://hl7.org/fhir/Profile/questionnaire-extensions#flyover">
        <valueString value="A reference to a set of rules that were followed when the resource was constructed, and which must be understood when processing the content. Asserting this rule set restricts the content to be only understood by a limited set of trading partners. This inherently limits the usefulness of the data in the long term. However the existing health eco-system is highly fractured, and not yet ready to define, collect, and exchange data in a generally computable sense. Wherever possible, implementers and/or specification writers should avoid using this element as much as possible."/>
      </extension>
      <extension url="http://www.healthintersections.com.au/fhir/Profile/metadata#type">
        <valueString value="uri"/>
      </extension>
      <linkId value="DocumentReference.implicitRules"/>
      <required value="false"/>
      <repeats value="true"/>
      <question>
        <linkId value="DocumentReference.implicitRules.value"/>
        <text value="A set of rules under which this content was created"/>
        <type value="string"/>
        <required value="false"/>
        <repeats value="false"/>
      </question>
    </group>
    <group>
      <extension url="http://hl7.org/fhir/Profile/questionnaire-extensions#flyover">
        <valueString value="The base language in which the resource is written. Language is provided to support indexing and accessibility (typically, services such as text to speech use the language tag). The html language tag in the narrative applies  to the narrative. The language tag on the resource may be used to specify the language of other presentations generated from the data in the resource

Not all the content has to be in the base language. The Resource.language should not be assumed to apply to the narrative automatically. If a language is specified, it should it also be specified on the div element in the html (see rules in HTML5 for information about the relationship between xml:lang and the html lang attribute)."/>
      </extension>
      <extension url="http://www.healthintersections.com.au/fhir/Profile/metadata#type">
        <valueString value="code"/>
      </extension>
      <linkId value="DocumentReference.language"/>
      <required value="false"/>
      <repeats value="true"/>
      <question>
        <linkId value="DocumentReference.language.value"/>
        <text value="language"/>
        <type value="choice"/>
        <required value="false"/>
        <repeats value="false"/>
      </question>
    </group>
    <group>
      <extension url="http://hl7.org/fhir/Profile/questionnaire-extensions#flyover">
        <valueString value="A human-readable narrative that contains a summary of the resource, and may be used to represent the content of the resource to a human. The narrative need not encode all the structured data, but is required to contain sufficient detail to make it &quot;clinically safe&quot; for a human to just read the narrative. Resource definitions may define what content should be represented in the narrative to ensure clinical safety. Contained resources do not have narrative. Resources that are not contained SHOULD have a narrative."/>
      </extension>
      <linkId value="DocumentReference.text"/>
      <text value="Text summary of the resource, for human interpretation"/>
      <required value="false"/>
      <repeats value="true"/>
    </group>
    <group>
      <extension url="http://hl7.org/fhir/Profile/questionnaire-extensions#flyover">
        <valueString value="These resources do not have an independent existence apart from the resource that contains them - they cannot be identified independently, and nor can they have their own independent transaction scope. This should never be done when the content can be identified properly, as once identification is lost, it is extremely difficult (and context dependent) to restore it again."/>
      </extension>
      <linkId value="DocumentReference.contained"/>
      <text value="Contained, inline Resources"/>
      <required value="false"/>
      <repeats value="true"/>
    </group>
    <group>
      <extension url="http://hl7.org/fhir/Profile/questionnaire-extensions#flyover">
        <valueString value="Document identifier as assigned by the source of the document. This identifier is specific to this version of the document. This unique identifier may be used elsewhere to identify this version of the document. CDA Document Id extension and root."/>
      </extension>
      <extension url="http://www.healthintersections.com.au/fhir/Profile/metadata#type">
        <valueString value="Identifier"/>
      </extension>
      <linkId value="DocumentReference.masterIdentifier"/>
      <text value="Master Version Specific Identifier"/>
      <required value="false"/>
      <repeats value="true"/>
      <question>
        <linkId value="DocumentReference.masterIdentifier.label"/>
        <text value="label:"/>
        <type value="string"/>
        <required value="false"/>
        <repeats value="false"/>
      </question>
      <question>
        <linkId value="DocumentReference.masterIdentifier.system"/>
        <text value="system:"/>
        <type value="string"/>
        <required value="false"/>
        <repeats value="false"/>
      </question>
      <question>
        <linkId value="DocumentReference.masterIdentifier.value"/>
        <text value="value:"/>
        <type value="string"/>
        <required value="false"/>
        <repeats value="false"/>
      </question>
    </group>
    <group>
      <extension url="http://hl7.org/fhir/Profile/questionnaire-extensions#flyover">
        <valueString value="Other identifiers associated with the document, including version independent identifiers."/>
      </extension>
      <extension url="http://www.healthintersections.com.au/fhir/Profile/metadata#type">
        <valueString value="Identifier"/>
      </extension>
      <linkId value="DocumentReference.identifier"/>
      <text value="Other identifiers for the document"/>
      <required value="false"/>
      <repeats value="true"/>
      <question>
        <linkId value="DocumentReference.identifier.label"/>
        <text value="label:"/>
        <type value="string"/>
        <required value="false"/>
        <repeats value="false"/>
      </question>
      <question>
        <linkId value="DocumentReference.identifier.system"/>
        <text value="system:"/>
        <type value="string"/>
        <required value="false"/>
        <repeats value="false"/>
      </question>
      <question>
        <linkId value="DocumentReference.identifier.value"/>
        <text value="value:"/>
        <type value="string"/>
        <required value="false"/>
        <repeats value="false"/>
      </question>
    </group>
    <group>
      <extension url="http://hl7.org/fhir/Profile/questionnaire-extensions#flyover">
        <valueString value="Who or what the document is about. The document can be about a person, (patient or healthcare practitioner), a device (I.e. machine) or even a group of subjects (such as a document about a herd of farm animals, or a set of patients that share a common exposure)."/>
      </extension>
      <linkId value="DocumentReference.subject"/>
      <text value="Who|what is the subject of the document"/>
      <required value="false"/>
      <repeats value="true"/>
      <question>
        <linkId value="DocumentReference.subject._type"/>
        <text value="type"/>
        <type value="choice"/>
        <required value="false"/>
        <repeats value="false"/>
        <options>
          <reference value="#vs2"/>
        </options>
        <group>
          <extension url="http://www.healthintersections.com.au/fhir/Profile/metadata#type">
            <valueString value="Reference"/>
          </extension>
          <linkId value="DocumentReference.subject._Patient"/>
          <question>
            <extension url="http://www.healthintersections.com.au/fhir/Profile/metadata#reference">
              <valueString value="/Patient?subject=$subj&amp;patient=$subj&amp;encounter=$encounter"/>
            </extension>
            <linkId value="DocumentReference.subject._Patient.value"/>
            <text value="Patient"/>
            <type value="reference"/>
            <required value="false"/>
            <repeats value="false"/>
          </question>
        </group>
        <group>
          <extension url="http://www.healthintersections.com.au/fhir/Profile/metadata#type">
            <valueString value="Reference"/>
          </extension>
          <linkId value="DocumentReference.subject._Practitioner"/>
          <question>
            <extension url="http://www.healthintersections.com.au/fhir/Profile/metadata#reference">
              <valueString value="/Practitioner?subject=$subj&amp;patient=$subj&amp;encounter=$encounter"/>
            </extension>
            <linkId value="DocumentReference.subject._Practitioner.value"/>
            <text value="Practitioner"/>
            <type value="reference"/>
            <required value="false"/>
            <repeats value="false"/>
          </question>
        </group>
        <group>
          <extension url="http://www.healthintersections.com.au/fhir/Profile/metadata#type">
            <valueString value="Reference"/>
          </extension>
          <linkId value="DocumentReference.subject._Group"/>
          <question>
            <extension url="http://www.healthintersections.com.au/fhir/Profile/metadata#reference">
              <valueString value="/Group?subject=$subj&amp;patient=$subj&amp;encounter=$encounter"/>
            </extension>
            <linkId value="DocumentReference.subject._Group.value"/>
            <text value="Group"/>
            <type value="reference"/>
            <required value="false"/>
            <repeats value="false"/>
          </question>
        </group>
        <group>
          <extension url="http://www.healthintersections.com.au/fhir/Profile/metadata#type">
            <valueString value="Reference"/>
          </extension>
          <linkId value="DocumentReference.subject._Device"/>
          <question>
            <extension url="http://www.healthintersections.com.au/fhir/Profile/metadata#reference">
              <valueString value="/Device?subject=$subj&amp;patient=$subj&amp;encounter=$encounter"/>
            </extension>
            <linkId value="DocumentReference.subject._Device.value"/>
            <text value="Device"/>
            <type value="reference"/>
            <required value="false"/>
            <repeats value="false"/>
          </question>
        </group>
      </question>
    </group>
    <group>
      <extension url="http://hl7.org/fhir/Profile/questionnaire-extensions#flyover">
        <valueString value="The type code specifies the precise type of document from the user perspective. It is recommended that the value Set be drawn from a coding scheme providing a fine level of granularity such as LOINC.  (e.g. Patient Summary, Discharge Summary, Prescription, etc.). Key metadata element describing the document, used in searching/filtering."/>
      </extension>
      <extension url="http://www.healthintersections.com.au/fhir/Profile/metadata#type">
        <valueString value="CodeableConcept"/>
      </extension>
      <linkId value="DocumentReference.type"/>
      <text value="Precise type of document"/>
      <required value="true"/>
      <repeats value="true"/>
      <question>
        <linkId value="DocumentReference.type.coding"/>
        <text value="code:"/>
        <type value="open-choice"/>
        <required value="false"/>
        <repeats value="false"/>
      </question>
      <question>
        <linkId value="DocumentReference.type.text"/>
        <text value="text:"/>
        <type value="string"/>
        <required value="false"/>
        <repeats value="false"/>
      </question>
    </group>
    <group>
      <extension url="http://hl7.org/fhir/Profile/questionnaire-extensions#flyover">
        <valueString value="The class code specifying the high-level use classification of the document type (e.g., Report, Summary, Images, Treatment Plan, Patient Preferences, Workflow). Helps humans to assess whether the document is of interest when viewing an list of documents."/>
      </extension>
      <extension url="http://www.healthintersections.com.au/fhir/Profile/metadata#type">
        <valueString value="CodeableConcept"/>
      </extension>
      <linkId value="DocumentReference.class"/>
      <text value="High-level classification of document"/>
      <required value="false"/>
      <repeats value="true"/>
      <question>
        <linkId value="DocumentReference.class.coding"/>
        <text value="code:"/>
        <type value="open-choice"/>
        <required value="false"/>
        <repeats value="false"/>
      </question>
      <question>
        <linkId value="DocumentReference.class.text"/>
        <text value="text:"/>
        <type value="string"/>
        <required value="false"/>
        <repeats value="false"/>
      </question>
    </group>
    <group>
      <extension url="http://hl7.org/fhir/Profile/questionnaire-extensions#flyover">
        <valueString value="An identifier that identifies the the document encoding, structure and template that the document conforms to beyond the base format indicated in the mimeType. Helps the processing. Usually is a URN that identifies. For IHE defined Document Content profiles this is a urn issued by IHE."/>
      </extension>
      <extension url="http://www.healthintersections.com.au/fhir/Profile/metadata#type">
        <valueString value="uri"/>
      </extension>
      <linkId value="DocumentReference.format"/>
      <required value="false"/>
      <repeats value="true"/>
      <question>
        <linkId value="DocumentReference.format.value"/>
        <text value="Format/content rules for the document"/>
        <type value="string"/>
        <required value="false"/>
        <repeats value="false"/>
      </question>
    </group>
    <group>
      <extension url="http://hl7.org/fhir/Profile/questionnaire-extensions#flyover">
        <valueString value="Identifies who is responsible for adding the information to the document. Not necessarily who did the actual data entry (i.e. typist) it in or who was the source (informant)."/>
      </extension>
      <linkId value="DocumentReference.author"/>
      <text value="Who and/or what authored the document"/>
      <required value="true"/>
      <repeats value="true"/>
      <question>
        <linkId value="DocumentReference.author._type"/>
        <text value="type"/>
        <type value="choice"/>
        <required value="false"/>
        <repeats value="false"/>
        <options>
          <reference value="#vs3"/>
        </options>
        <group>
          <extension url="http://www.healthintersections.com.au/fhir/Profile/metadata#type">
            <valueString value="Reference"/>
          </extension>
          <linkId value="DocumentReference.author._Practitioner"/>
          <question>
            <extension url="http://www.healthintersections.com.au/fhir/Profile/metadata#reference">
              <valueString value="/Practitioner?subject=$subj&amp;patient=$subj&amp;encounter=$encounter"/>
            </extension>
            <linkId value="DocumentReference.author._Practitioner.value"/>
            <text value="Practitioner"/>
            <type value="reference"/>
            <required value="false"/>
            <repeats value="false"/>
          </question>
        </group>
        <group>
          <extension url="http://www.healthintersections.com.au/fhir/Profile/metadata#type">
            <valueString value="Reference"/>
          </extension>
          <linkId value="DocumentReference.author._Organization"/>
          <question>
            <extension url="http://www.healthintersections.com.au/fhir/Profile/metadata#reference">
              <valueString value="/Organization?subject=$subj&amp;patient=$subj&amp;encounter=$encounter"/>
            </extension>
            <linkId value="DocumentReference.author._Organization.value"/>
            <text value="Organization"/>
            <type value="reference"/>
            <required value="false"/>
            <repeats value="false"/>
          </question>
        </group>
        <group>
          <extension url="http://www.healthintersections.com.au/fhir/Profile/metadata#type">
            <valueString value="Reference"/>
          </extension>
          <linkId value="DocumentReference.author._Device"/>
          <question>
            <extension url="http://www.healthintersections.com.au/fhir/Profile/metadata#reference">
              <valueString value="/Device?subject=$subj&amp;patient=$subj&amp;encounter=$encounter"/>
            </extension>
            <linkId value="DocumentReference.author._Device.value"/>
            <text value="Device"/>
            <type value="reference"/>
            <required value="false"/>
            <repeats value="false"/>
          </question>
        </group>
        <group>
          <extension url="http://www.healthintersections.com.au/fhir/Profile/metadata#type">
            <valueString value="Reference"/>
          </extension>
          <linkId value="DocumentReference.author._Patient"/>
          <question>
            <extension url="http://www.healthintersections.com.au/fhir/Profile/metadata#reference">
              <valueString value="/Patient?subject=$subj&amp;patient=$subj&amp;encounter=$encounter"/>
            </extension>
            <linkId value="DocumentReference.author._Patient.value"/>
            <text value="Patient"/>
            <type value="reference"/>
            <required value="false"/>
            <repeats value="false"/>
          </question>
        </group>
        <group>
          <extension url="http://www.healthintersections.com.au/fhir/Profile/metadata#type">
            <valueString value="Reference"/>
          </extension>
          <linkId value="DocumentReference.author._RelatedPerson"/>
          <question>
            <extension url="http://www.healthintersections.com.au/fhir/Profile/metadata#reference">
              <valueString value="/RelatedPerson?subject=$subj&amp;patient=$subj&amp;encounter=$encounter"/>
            </extension>
            <linkId value="DocumentReference.author._RelatedPerson.value"/>
            <text value="RelatedPerson"/>
            <type value="reference"/>
            <required value="false"/>
            <repeats value="false"/>
          </question>
        </group>
      </question>
    </group>
    <group>
      <extension url="http://hl7.org/fhir/Profile/questionnaire-extensions#flyover">
        <valueString value="Identifies the organization or group who is responsible for ongoing maintenance of and access to the document. Identifies the logical organization to go to find the current version, where to report issues, etc. This is different from the physical location of the document, which is the technical location of the document, which host may be delegated to the management of some other organization."/>
      </extension>
      <extension url="http://www.healthintersections.com.au/fhir/Profile/metadata#type">
        <valueString value="Reference"/>
      </extension>
      <linkId value="DocumentReference.custodian"/>
      <required value="false"/>
      <repeats value="true"/>
      <question>
        <extension url="http://www.healthintersections.com.au/fhir/Profile/metadata#reference">
          <valueString value="/Organization?subject=$subj&amp;patient=$subj&amp;encounter=$encounter"/>
        </extension>
        <linkId value="DocumentReference.custodian.value"/>
        <text value="Org which maintains the document"/>
        <type value="reference"/>
        <required value="false"/>
        <repeats value="false"/>
      </question>
    </group>
    <group>
      <extension url="http://hl7.org/fhir/Profile/questionnaire-extensions#flyover">
        <valueString value="Which person or organization authenticates that this document is valid. Represents a participant within the author institution who has legally authenticated or attested the document. Legal authentication implies that a document has been signed manually or electronically by the legal Authenticator."/>
      </extension>
      <linkId value="DocumentReference.authenticator"/>
      <text value="Who/What authenticated the document"/>
      <required value="false"/>
      <repeats value="true"/>
      <question>
        <linkId value="DocumentReference.authenticator._type"/>
        <text value="type"/>
        <type value="choice"/>
        <required value="false"/>
        <repeats value="false"/>
        <options>
          <reference value="#vs4"/>
        </options>
        <group>
          <extension url="http://www.healthintersections.com.au/fhir/Profile/metadata#type">
            <valueString value="Reference"/>
          </extension>
          <linkId value="DocumentReference.authenticator._Practitioner"/>
          <question>
            <extension url="http://www.healthintersections.com.au/fhir/Profile/metadata#reference">
              <valueString value="/Practitioner?subject=$subj&amp;patient=$subj&amp;encounter=$encounter"/>
            </extension>
            <linkId value="DocumentReference.authenticator._Practitioner.value"/>
            <text value="Practitioner"/>
            <type value="reference"/>
            <required value="false"/>
            <repeats value="false"/>
          </question>
        </group>
        <group>
          <extension url="http://www.healthintersections.com.au/fhir/Profile/metadata#type">
            <valueString value="Reference"/>
          </extension>
          <linkId value="DocumentReference.authenticator._Organization"/>
          <question>
            <extension url="http://www.healthintersections.com.au/fhir/Profile/metadata#reference">
              <valueString value="/Organization?subject=$subj&amp;patient=$subj&amp;encounter=$encounter"/>
            </extension>
            <linkId value="DocumentReference.authenticator._Organization.value"/>
            <text value="Organization"/>
            <type value="reference"/>
            <required value="false"/>
            <repeats value="false"/>
          </question>
        </group>
      </question>
    </group>
    <group>
      <extension url="http://hl7.org/fhir/Profile/questionnaire-extensions#flyover">
        <valueString value="When the document was created. Creation time is used for tracking, organizing versions and searching. This is the creation time of the document, not the source material on which it is based."/>
      </extension>
      <extension url="http://www.healthintersections.com.au/fhir/Profile/metadata#type">
        <valueString value="datetime"/>
      </extension>
      <linkId value="DocumentReference.created"/>
      <required value="false"/>
      <repeats value="true"/>
      <question>
        <linkId value="DocumentReference.created.value"/>
        <text value="Document creation time"/>
        <type value="dateTime"/>
        <required value="false"/>
        <repeats value="false"/>
      </question>
    </group>
    <group>
      <extension url="http://hl7.org/fhir/Profile/questionnaire-extensions#flyover">
        <valueString value="When the document reference was created. Referencing/indexing time is used for tracking, organizing versions and searching."/>
      </extension>
      <extension url="http://www.healthintersections.com.au/fhir/Profile/metadata#type">
        <valueString value="instant"/>
      </extension>
      <linkId value="DocumentReference.indexed"/>
      <required value="true"/>
      <repeats value="true"/>
      <question>
        <linkId value="DocumentReference.indexed.value"/>
        <text value="When this document reference created"/>
        <type value="instant"/>
        <required value="false"/>
        <repeats value="false"/>
      </question>
    </group>
    <group>
      <extension url="http://hl7.org/fhir/Profile/questionnaire-extensions#flyover">
        <valueString value="The status of this document reference. This is the status of the DocumentReference object, which might be independent from the docStatus."/>
      </extension>
      <extension url="http://www.healthintersections.com.au/fhir/Profile/metadata#type">
        <valueString value="code"/>
      </extension>
      <linkId value="DocumentReference.status"/>
      <required value="true"/>
      <repeats value="true"/>
      <question>
        <linkId value="DocumentReference.status.value"/>
        <text value="status"/>
        <type value="choice"/>
        <required value="false"/>
        <repeats value="false"/>
      </question>
    </group>
    <group>
      <extension url="http://hl7.org/fhir/Profile/questionnaire-extensions#flyover">
        <valueString value="The status of the underlying document. The document that is pointed to might be in various lifecycle states."/>
      </extension>
      <extension url="http://www.healthintersections.com.au/fhir/Profile/metadata#type">
        <valueString value="CodeableConcept"/>
      </extension>
      <linkId value="DocumentReference.docStatus"/>
      <text value="preliminary | final | appended | amended | entered-in-error"/>
      <required value="false"/>
      <repeats value="true"/>
      <question>
        <linkId value="DocumentReference.docStatus.coding"/>
        <text value="code:"/>
        <type value="choice"/>
        <required value="false"/>
        <repeats value="false"/>
      </question>
      <question>
        <linkId value="DocumentReference.docStatus.text"/>
        <text value="text:"/>
        <type value="string"/>
        <required value="false"/>
        <repeats value="false"/>
      </question>
    </group>
    <group>
      <extension url="http://hl7.org/fhir/Profile/questionnaire-extensions#flyover">
        <valueString value="Relationships that this document has with other document references that already exist."/>
      </extension>
      <linkId value="DocumentReference.relatesTo"/>
      <title value="Relationships to other documents"/>
      <required value="false"/>
      <repeats value="true"/>
      <group>
        <extension url="http://hl7.org/fhir/Profile/questionnaire-extensions#flyover">
          <valueString value="unique id for the element within a resource (for internal references)."/>
        </extension>
        <extension url="http://www.healthintersections.com.au/fhir/Profile/metadata#type">
          <valueString value="string"/>
        </extension>
        <linkId value="DocumentReference.relatesTo.id"/>
        <required value="false"/>
        <repeats value="true"/>
        <question>
          <linkId value="DocumentReference.relatesTo.id.value"/>
          <text value="xml:id (or equivalent in JSON)"/>
          <type value="string"/>
          <required value="false"/>
          <repeats value="false"/>
        </question>
      </group>
      <group>
        <extension url="http://hl7.org/fhir/Profile/questionnaire-extensions#flyover">
          <valueString value="The type of relationship that this document has with anther document. If this document appends another document, then the document cannot be fully understood without also accessing the referenced document."/>
        </extension>
        <extension url="http://www.healthintersections.com.au/fhir/Profile/metadata#type">
          <valueString value="code"/>
        </extension>
        <linkId value="DocumentReference.relatesTo.code"/>
        <required value="true"/>
        <repeats value="true"/>
        <question>
          <linkId value="DocumentReference.relatesTo.code.value"/>
          <text value="code"/>
          <type value="choice"/>
          <required value="false"/>
          <repeats value="false"/>
        </question>
      </group>
      <group>
        <extension url="http://hl7.org/fhir/Profile/questionnaire-extensions#flyover">
          <valueString value="The target document of this relationship."/>
        </extension>
        <extension url="http://www.healthintersections.com.au/fhir/Profile/metadata#type">
          <valueString value="Reference"/>
        </extension>
        <linkId value="DocumentReference.relatesTo.target"/>
        <required value="true"/>
        <repeats value="true"/>
        <question>
          <extension url="http://www.healthintersections.com.au/fhir/Profile/metadata#reference">
            <valueString value="/DocumentReference?subject=$subj&amp;patient=$subj&amp;encounter=$encounter"/>
          </extension>
          <linkId value="DocumentReference.relatesTo.target.value"/>
          <text value="Target of the relationship"/>
          <type value="reference"/>
          <required value="false"/>
          <repeats value="false"/>
        </question>
      </group>
    </group>
    <group>
      <extension url="http://hl7.org/fhir/Profile/questionnaire-extensions#flyover">
        <valueString value="Human-readable description of the source document. This is sometimes known as the &quot;title&quot;. What the document is about, rather than a terse summary of the document. It is commonly the case that records do not have a title and are collectively referred to by the display name of Record code (e.g. a &quot;consultation&quot; or &quot;progress note&quot;)."/>
      </extension>
      <extension url="http://www.healthintersections.com.au/fhir/Profile/metadata#type">
        <valueString value="string"/>
      </extension>
      <linkId value="DocumentReference.description"/>
      <required value="false"/>
      <repeats value="true"/>
      <question>
        <linkId value="DocumentReference.description.value"/>
        <text value="Human-readable description (title)"/>
        <type value="string"/>
        <required value="false"/>
        <repeats value="false"/>
      </question>
    </group>
    <group>
      <extension url="http://hl7.org/fhir/Profile/questionnaire-extensions#flyover">
        <valueString value="A set of Security-Tag codes specifying the level of privacy/security of the Document. The confidentiality codes can carry multiple vocabulary items. HL7 has developed an understanding of security and privacy tags that might be desirable in a Document Sharing environment, called HL7 Healthcare Privacy and Security Classification System (HCS). The following specification is recommended but not mandated, as the vocabulary bindings are an administrative domain responsibility. The use of this method is up to the policy domain such as the XDS Affinity Domain or other Trust Domain where all parties including sender and recipients are trusted to appropriately tag and enforce. 
• [1…1] Confidentiality Security Classification Label Field
• [0…*] Sensitivity Security Category Label Field
• [0…*] Compartment Security Category Label Field
• [0…*] Integrity Security Category Label Field
• [0…*] Handling Caveat Security Category Field
In the HL7 Healthcare Privacy and Security Classification System In the HL7 Healthcare Privacy and Security Classification (HCS) there are code systems specific to Confidentiality, Sensitivity, Integrity, and Handling Caveats. Some values would come from a local vocabulary as they are related to workflow roles and special projects."/>
      </extension>
      <extension url="http://www.healthintersections.com.au/fhir/Profile/metadata#type">
        <valueString value="CodeableConcept"/>
      </extension>
      <linkId value="DocumentReference.confidentiality"/>
      <text value="Document security-tags"/>
      <required value="false"/>
      <repeats value="true"/>
      <question>
        <linkId value="DocumentReference.confidentiality.coding"/>
        <text value="code:"/>
        <type value="open-choice"/>
        <required value="false"/>
        <repeats value="false"/>
      </question>
      <question>
        <linkId value="DocumentReference.confidentiality.text"/>
        <text value="text:"/>
        <type value="string"/>
        <required value="false"/>
        <repeats value="false"/>
      </question>
    </group>
    <group>
      <extension url="http://hl7.org/fhir/Profile/questionnaire-extensions#flyover">
        <valueString value="The document or url to the document along with critical metadata to prove content has integrity."/>
      </extension>
      <extension url="http://www.healthintersections.com.au/fhir/Profile/metadata#type">
        <valueString value="Attachment"/>
      </extension>
      <linkId value="DocumentReference.content"/>
      <text value="Where to access the document"/>
      <required value="true"/>
      <repeats value="true"/>
    </group>
    <group>
      <extension url="http://hl7.org/fhir/Profile/questionnaire-extensions#flyover">
        <valueString value="The clinical context in which the document was prepared."/>
      </extension>
      <linkId value="DocumentReference.context"/>
      <title value="Clinical context of document"/>
      <text value="These values are primarily added to help with searching for interesting/relevant documents."/>
      <required value="false"/>
      <repeats value="false"/>
      <group>
        <extension url="http://hl7.org/fhir/Profile/questionnaire-extensions#flyover">
          <valueString value="unique id for the element within a resource (for internal references)."/>
        </extension>
        <extension url="http://www.healthintersections.com.au/fhir/Profile/metadata#type">
          <valueString value="string"/>
        </extension>
        <linkId value="DocumentReference.context.id"/>
        <required value="false"/>
        <repeats value="true"/>
        <question>
          <linkId value="DocumentReference.context.id.value"/>
          <text value="xml:id (or equivalent in JSON)"/>
          <type value="string"/>
          <required value="false"/>
          <repeats value="false"/>
        </question>
      </group>
      <group>
        <extension url="http://hl7.org/fhir/Profile/questionnaire-extensions#flyover">
          <valueString value="This list of codes represents the main clinical acts, such as a colonoscopy or an appendectomy, being documented. In some cases, the event is inherent in the typeCode, such as a &quot;History and Physical Report&quot; in which the procedure being documented is necessarily a &quot;History and Physical&quot; act. An event can further specialize the act inherent in the type, such as 
where it is simply &quot;Procedure Report&quot; and the procedure was a &quot;colonoscopy&quot;. If one or more event codes are included, they shall not conflict with the values inherent in the class or type elements as such a conflict would create an ambiguous situation."/>
        </extension>
        <extension url="http://www.healthintersections.com.au/fhir/Profile/metadata#type">
          <valueString value="CodeableConcept"/>
        </extension>
        <linkId value="DocumentReference.context.event"/>
        <text value="Main Clinical Acts Documented"/>
        <required value="false"/>
        <repeats value="true"/>
        <question>
          <linkId value="DocumentReference.context.event.coding"/>
          <text value="code:"/>
          <type value="open-choice"/>
          <required value="false"/>
          <repeats value="false"/>
        </question>
        <question>
          <linkId value="DocumentReference.context.event.text"/>
          <text value="text:"/>
          <type value="string"/>
          <required value="false"/>
          <repeats value="false"/>
        </question>
      </group>
      <group>
        <extension url="http://hl7.org/fhir/Profile/questionnaire-extensions#flyover">
          <valueString value="The time period over which the service that is described by the document was provided."/>
        </extension>
        <extension url="http://www.healthintersections.com.au/fhir/Profile/metadata#type">
          <valueString value="Period"/>
        </extension>
        <linkId value="DocumentReference.context.period"/>
        <text value="Time of service that is being documented"/>
        <required value="false"/>
        <repeats value="true"/>
        <question>
          <linkId value="DocumentReference.context.period.low"/>
          <text value="start:"/>
          <type value="dateTime"/>
          <required value="false"/>
          <repeats value="false"/>
        </question>
        <question>
          <linkId value="DocumentReference.context.period.end"/>
          <text value="end:"/>
          <type value="dateTime"/>
          <required value="false"/>
          <repeats value="false"/>
        </question>
      </group>
      <group>
        <extension url="http://hl7.org/fhir/Profile/questionnaire-extensions#flyover">
          <valueString value="The kind of facility where the patient was seen."/>
        </extension>
        <extension url="http://www.healthintersections.com.au/fhir/Profile/metadata#type">
          <valueString value="CodeableConcept"/>
        </extension>
        <linkId value="DocumentReference.context.facilityType"/>
        <text value="Kind of facility where patient was seen"/>
        <required value="false"/>
        <repeats value="true"/>
        <question>
          <linkId value="DocumentReference.context.facilityType.coding"/>
          <text value="code:"/>
          <type value="open-choice"/>
          <required value="false"/>
          <repeats value="false"/>
        </question>
        <question>
          <linkId value="DocumentReference.context.facilityType.text"/>
          <text value="text:"/>
          <type value="string"/>
          <required value="false"/>
          <repeats value="false"/>
        </question>
      </group>
      <group>
        <extension url="http://hl7.org/fhir/Profile/questionnaire-extensions#flyover">
          <valueString value="This property may convey specifics about the practice setting where the content was created, often reflecting the clinical specialty. The value set for this content has an example binding because it is a value set decided by community policy. Other examples exist for consideration:
* HITSP created the table HITSP/C80 Table 2-148 Clinical Specialty Value Set (a value set based upon SNOMED-CT which is referenced by Direct (XDR and XDM for Direct Messaging Specification, Version 1), as well as Nationwide Health Information Network (NHIN).  Query for Documents, Web Service Interface Specification, V 3.0, 07/27/2011
* ELGA (Austria) (ELGA CDA Implementie-rungsleitfäden Registrierung von CDA Dokumenten für ELGA mit IHE Cross-Enterprise Document Sharing: XDS Metadaten (XDSDocumentEntry), [1.2.40.0.34.7.6.3]
* XDS Connect-a-thon practiceSettingCode."/>
        </extension>
        <extension url="http://www.healthintersections.com.au/fhir/Profile/metadata#type">
          <valueString value="CodeableConcept"/>
        </extension>
        <linkId value="DocumentReference.context.practiceSetting"/>
        <text value="Additional details about where the content was created (e.g. clinical specialty)"/>
        <required value="false"/>
        <repeats value="true"/>
        <question>
          <linkId value="DocumentReference.context.practiceSetting.coding"/>
          <text value="code:"/>
          <type value="open-choice"/>
          <required value="false"/>
          <repeats value="false"/>
        </question>
        <question>
          <linkId value="DocumentReference.context.practiceSetting.text"/>
          <text value="text:"/>
          <type value="string"/>
          <required value="false"/>
          <repeats value="false"/>
        </question>
      </group>
      <group>
        <extension url="http://hl7.org/fhir/Profile/questionnaire-extensions#flyover">
          <valueString value="The Patient Information as known when the document was published. May be a reference to a version specific, or contained."/>
        </extension>
        <extension url="http://www.healthintersections.com.au/fhir/Profile/metadata#type">
          <valueString value="Reference"/>
        </extension>
        <linkId value="DocumentReference.context.sourcePatientInfo"/>
        <required value="false"/>
        <repeats value="true"/>
        <question>
          <extension url="http://www.healthintersections.com.au/fhir/Profile/metadata#reference">
            <valueString value="/Patient?subject=$subj&amp;patient=$subj&amp;encounter=$encounter"/>
          </extension>
          <linkId value="DocumentReference.context.sourcePatientInfo.value"/>
          <text value="Source patient info"/>
          <type value="reference"/>
          <required value="false"/>
          <repeats value="false"/>
        </question>
      </group>
      <group>
        <extension url="http://hl7.org/fhir/Profile/questionnaire-extensions#flyover">
          <valueString value="Related identifiers or resources associated with the DocumentReference."/>
        </extension>
        <linkId value="DocumentReference.context.related"/>
        <title value="Related things"/>
        <text value="May be identifiers or resources that caused the DocumentReference or referenced Document to be created."/>
        <required value="false"/>
        <repeats value="true"/>
        <group>
          <extension url="http://hl7.org/fhir/Profile/questionnaire-extensions#flyover">
            <valueString value="unique id for the element within a resource (for internal references)."/>
          </extension>
          <extension url="http://www.healthintersections.com.au/fhir/Profile/metadata#type">
            <valueString value="string"/>
          </extension>
          <linkId value="DocumentReference.context.related.id"/>
          <required value="false"/>
          <repeats value="true"/>
          <question>
            <linkId value="DocumentReference.context.related.id.value"/>
            <text value="xml:id (or equivalent in JSON)"/>
            <type value="string"/>
            <required value="false"/>
            <repeats value="false"/>
          </question>
        </group>
        <group>
          <extension url="http://hl7.org/fhir/Profile/questionnaire-extensions#flyover">
            <valueString value="Related identifier to this DocumentReference. If both id and ref are present they shall refer to the same thing. Order numbers, accession numbers, XDW workflow numbers."/>
          </extension>
          <extension url="http://www.healthintersections.com.au/fhir/Profile/metadata#type">
            <valueString value="Identifier"/>
          </extension>
          <linkId value="DocumentReference.context.related.ids"/>
          <text value="Related Identifier"/>
          <required value="false"/>
          <repeats value="true"/>
          <question>
            <linkId value="DocumentReference.context.related.ids.label"/>
            <text value="label:"/>
            <type value="string"/>
            <required value="false"/>
            <repeats value="false"/>
          </question>
          <question>
            <linkId value="DocumentReference.context.related.ids.system"/>
            <text value="system:"/>
            <type value="string"/>
            <required value="false"/>
            <repeats value="false"/>
          </question>
          <question>
            <linkId value="DocumentReference.context.related.ids.value"/>
            <text value="value:"/>
            <type value="string"/>
            <required value="false"/>
            <repeats value="false"/>
          </question>
        </group>
        <group>
          <extension url="http://hl7.org/fhir/Profile/questionnaire-extensions#flyover">
            <valueString value="Related Resource to this DocumentReference. If both id and ref are present they shall refer to the same thing. Order, DiagnosticOrder,  Procedure, EligibilityRequest, etc."/>
          </extension>
          <extension url="http://www.healthintersections.com.au/fhir/Profile/metadata#type">
            <valueString value="Reference"/>
          </extension>
          <linkId value="DocumentReference.context.related.refs"/>
          <required value="false"/>
          <repeats value="true"/>
          <question>
            <extension url="http://www.healthintersections.com.au/fhir/Profile/metadata#reference">
              <valueString value="/Resource?subject=$subj&amp;patient=$subj&amp;encounter=$encounter"/>
            </extension>
            <linkId value="DocumentReference.context.related.refs.value"/>
            <text value="Related Resource"/>
            <type value="reference"/>
            <required value="false"/>
            <repeats value="false"/>
          </question>
        </group>
      </group>
    </group>
  </group>
</Questionnaire>