{
  "resourceType": "Questionnaire",
  "id": "qs1",
  "contained": [
    {
      "resourceType": "ValueSet",
      "id": "vs2",
      "url": "urn:uuid:f8e38191-4957-434e-9e44-aef5436c6d9b",
      "name": "Type options for Parameters.parameter.value[x]",
      "description": "Type options for Parameters.parameter.value[x]",
      "status": "active",
      "expansion": {
        "identifier": "urn:uuid:72e16133-c67a-4e52-8080-490f25df083b",
        "timestamp": "2015-03-23T23:58:37+00:00",
        "contains": [
          {
            "system": "http://hl7.org/fhir/data-types",
            "code": "integer",
            "display": "integer"
          },
          {
            "system": "http://hl7.org/fhir/data-types",
            "code": "decimal",
            "display": "decimal"
          },
          {
            "system": "http://hl7.org/fhir/data-types",
            "code": "dateTime",
            "display": "dateTime"
          },
          {
            "system": "http://hl7.org/fhir/data-types",
            "code": "date",
            "display": "date"
          },
          {
            "system": "http://hl7.org/fhir/data-types",
            "code": "instant",
            "display": "instant"
          },
          {
            "system": "http://hl7.org/fhir/data-types",
            "code": "time",
            "display": "time"
          },
          {
            "system": "http://hl7.org/fhir/data-types",
            "code": "string",
            "display": "string"
          },
          {
            "system": "http://hl7.org/fhir/data-types",
            "code": "uri",
            "display": "uri"
          },
          {
            "system": "http://hl7.org/fhir/data-types",
            "code": "boolean",
            "display": "boolean"
          },
          {
            "system": "http://hl7.org/fhir/data-types",
            "code": "Coding",
            "display": "Coding"
          },
          {
            "system": "http://hl7.org/fhir/data-types",
            "code": "CodeableConcept",
            "display": "CodeableConcept"
          },
          {
            "system": "http://hl7.org/fhir/data-types",
            "code": "Attachment",
            "display": "Attachment"
          },
          {
            "system": "http://hl7.org/fhir/data-types",
            "code": "Identifier",
            "display": "Identifier"
          },
          {
            "system": "http://hl7.org/fhir/data-types",
            "code": "Quantity",
            "display": "Quantity"
          },
          {
            "system": "http://hl7.org/fhir/data-types",
            "code": "Range",
            "display": "Range"
          },
          {
            "system": "http://hl7.org/fhir/data-types",
            "code": "Period",
            "display": "Period"
          },
          {
            "system": "http://hl7.org/fhir/data-types",
            "code": "Ratio",
            "display": "Ratio"
          },
          {
            "system": "http://hl7.org/fhir/data-types",
            "code": "HumanName",
            "display": "HumanName"
          },
          {
            "system": "http://hl7.org/fhir/data-types",
            "code": "Address",
            "display": "Address"
          },
          {
            "system": "http://hl7.org/fhir/data-types",
            "code": "ContactPoint",
            "display": "ContactPoint"
          },
          {
            "system": "http://hl7.org/fhir/data-types",
            "code": "Timing",
            "display": "Timing"
          },
          {
            "system": "http://hl7.org/fhir/data-types",
            "code": "Reference",
            "display": "Reference"
          }
        ]
      }
    },
    {
      "resourceType": "ValueSet",
      "id": "vs3",
      "url": "urn:uuid:d10967d3-dd4b-4b0a-b070-078d0e09f722",
      "name": "Type options for Parameters.parameter.part.value[x]",
      "description": "Type options for Parameters.parameter.part.value[x]",
      "status": "active",
      "expansion": {
        "identifier": "urn:uuid:1edb3ca5-967d-4e30-9a2d-52ca2c5baac4",
        "timestamp": "2015-03-23T23:58:37+00:00",
        "contains": [
          {
            "system": "http://hl7.org/fhir/data-types",
            "code": "integer",
            "display": "integer"
          },
          {
            "system": "http://hl7.org/fhir/data-types",
            "code": "decimal",
            "display": "decimal"
          },
          {
            "system": "http://hl7.org/fhir/data-types",
            "code": "dateTime",
            "display": "dateTime"
          },
          {
            "system": "http://hl7.org/fhir/data-types",
            "code": "date",
            "display": "date"
          },
          {
            "system": "http://hl7.org/fhir/data-types",
            "code": "instant",
            "display": "instant"
          },
          {
            "system": "http://hl7.org/fhir/data-types",
            "code": "time",
            "display": "time"
          },
          {
            "system": "http://hl7.org/fhir/data-types",
            "code": "string",
            "display": "string"
          },
          {
            "system": "http://hl7.org/fhir/data-types",
            "code": "uri",
            "display": "uri"
          },
          {
            "system": "http://hl7.org/fhir/data-types",
            "code": "boolean",
            "display": "boolean"
          },
          {
            "system": "http://hl7.org/fhir/data-types",
            "code": "Coding",
            "display": "Coding"
          },
          {
            "system": "http://hl7.org/fhir/data-types",
            "code": "CodeableConcept",
            "display": "CodeableConcept"
          },
          {
            "system": "http://hl7.org/fhir/data-types",
            "code": "Attachment",
            "display": "Attachment"
          },
          {
            "system": "http://hl7.org/fhir/data-types",
            "code": "Identifier",
            "display": "Identifier"
          },
          {
            "system": "http://hl7.org/fhir/data-types",
            "code": "Quantity",
            "display": "Quantity"
          },
          {
            "system": "http://hl7.org/fhir/data-types",
            "code": "Range",
            "display": "Range"
          },
          {
            "system": "http://hl7.org/fhir/data-types",
            "code": "Period",
            "display": "Period"
          },
          {
            "system": "http://hl7.org/fhir/data-types",
            "code": "Ratio",
            "display": "Ratio"
          },
          {
            "system": "http://hl7.org/fhir/data-types",
            "code": "HumanName",
            "display": "HumanName"
          },
          {
            "system": "http://hl7.org/fhir/data-types",
            "code": "Address",
            "display": "Address"
          },
          {
            "system": "http://hl7.org/fhir/data-types",
            "code": "ContactPoint",
            "display": "ContactPoint"
          },
          {
            "system": "http://hl7.org/fhir/data-types",
            "code": "Timing",
            "display": "Timing"
          },
          {
            "system": "http://hl7.org/fhir/data-types",
            "code": "Reference",
            "display": "Reference"
          }
        ]
      }
    }
  ],
  "identifier": [
    {
      "system": "urn:ietf:rfc:3986"
    }
  ],
  "status": "draft",
  "date": "2015-03-23T23:56:59+00:00",
  "publisher": "HL7 FHIR Project",
  "group": {
    "extension": [
      {
        "url": "http://hl7.org/fhir/Profile/questionnaire-extensions#flyover",
        "valueString": "This special resource type is used to represent [operation](operations.html] request and response. It has no other use, and there is no RESTful end=point associated with it."
      }
    ],
    "linkId": "Parameters",
    "title": "Operation Request or Response",
    "text": "The parameters that may be used are defined by the OperationDefinition resource.",
    "required": true,
    "repeats": false,
    "group": [
      {
        "extension": [
          {
            "url": "http://hl7.org/fhir/Profile/questionnaire-extensions#flyover",
            "valueString": "The logical id of the resource, as used in the url for the resoure. Once assigned, this value never changes. The only time that a resource does not have an id is when it is being submitted to the server using a create operation. Bundles always have an id, though it is usually a generated UUID."
          },
          {
            "url": "http://www.healthintersections.com.au/fhir/Profile/metadata#type",
            "valueString": "string"
          }
        ],
        "linkId": "Parameters.id",
        "required": false,
        "repeats": true,
        "question": [
          {
            "linkId": "Parameters.id.value",
            "text": "Logical id of this artefact",
            "type": "string",
            "required": false,
            "repeats": false
          }
        ]
      },
      {
        "extension": [
          {
            "url": "http://hl7.org/fhir/Profile/questionnaire-extensions#flyover",
            "valueString": "The metadata about the resource. This is content that is maintained by the infrastructure. Changes to the content may not always be associated with version changes to the resource."
          }
        ],
        "linkId": "Parameters.meta",
        "text": "Metadata about the resource",
        "required": false,
        "repeats": true
      },
      {
        "extension": [
          {
            "url": "http://hl7.org/fhir/Profile/questionnaire-extensions#flyover",
            "valueString": "A reference to a set of rules that were followed when the resource was constructed, and which must be understood when processing the content. Asserting this rule set restricts the content to be only understood by a limited set of trading partners. This inherently limits the usefulness of the data in the long term. However the existing health eco-system is highly fractured, and not yet ready to define, collect, and exchange data in a generally computable sense. Wherever possible, implementers and/or specification writers should avoid using this element as much as possible."
          },
          {
            "url": "http://www.healthintersections.com.au/fhir/Profile/metadata#type",
            "valueString": "uri"
          }
        ],
        "linkId": "Parameters.implicitRules",
        "required": false,
        "repeats": true,
        "question": [
          {
            "linkId": "Parameters.implicitRules.value",
            "text": "A set of rules under which this content was created",
            "type": "string",
            "required": false,
            "repeats": false
          }
        ]
      },
      {
        "extension": [
          {
            "url": "http://hl7.org/fhir/Profile/questionnaire-extensions#flyover",
            "valueString": "The base language in which the resource is written. Language is provided to support indexing and accessibility (typically, services such as text to speech use the language tag). The html language tag in the narrative applies  to the narrative. The language tag on the resource may be used to specify the language of other presentations generated from the data in the resource\n\nNot all the content has to be in the base language. The Resource.language should not be assumed to apply to the narrative automatically. If a language is specified, it should it also be specified on the div element in the html (see rules in HTML5 for information about the relationship between xml:lang and the html lang attribute)."
          },
          {
            "url": "http://www.healthintersections.com.au/fhir/Profile/metadata#type",
            "valueString": "code"
          }
        ],
        "linkId": "Parameters.language",
        "required": false,
        "repeats": true,
        "question": [
          {
            "linkId": "Parameters.language.value",
            "text": "language",
            "type": "choice",
            "required": false,
            "repeats": false
          }
        ]
      },
      {
        "extension": [
          {
            "url": "http://hl7.org/fhir/Profile/questionnaire-extensions#flyover",
            "valueString": "A parameter passed to or received from the operation."
          }
        ],
        "linkId": "Parameters.parameter",
        "title": "Operation Parameter",
        "required": false,
        "repeats": true,
        "group": [
          {
            "extension": [
              {
                "url": "http://hl7.org/fhir/Profile/questionnaire-extensions#flyover",
                "valueString": "unique id for the element within a resource (for internal references)."
              },
              {
                "url": "http://www.healthintersections.com.au/fhir/Profile/metadata#type",
                "valueString": "string"
              }
            ],
            "linkId": "Parameters.parameter.id",
            "required": false,
            "repeats": true,
            "question": [
              {
                "linkId": "Parameters.parameter.id.value",
                "text": "xml:id (or equivalent in JSON)",
                "type": "string",
                "required": false,
                "repeats": false
              }
            ]
          },
          {
            "extension": [
              {
                "url": "http://hl7.org/fhir/Profile/questionnaire-extensions#flyover",
                "valueString": "The name of the parameter (reference to the operation definition)."
              },
              {
                "url": "http://www.healthintersections.com.au/fhir/Profile/metadata#type",
                "valueString": "string"
              }
            ],
            "linkId": "Parameters.parameter.name",
            "required": true,
            "repeats": true,
            "question": [
              {
                "linkId": "Parameters.parameter.name.value",
                "text": "Name from the definition",
                "type": "string",
                "required": false,
                "repeats": false
              }
            ]
          },
          {
            "extension": [
              {
                "url": "http://hl7.org/fhir/Profile/questionnaire-extensions#flyover",
                "valueString": "If the parameter is a data type."
              }
            ],
            "linkId": "Parameters.parameter.value[x]",
            "text": "If parameter is a data type",
            "required": false,
            "repeats": true,
            "question": [
              {
                "linkId": "Parameters.parameter.value[x]._type",
                "text": "type",
                "type": "choice",
                "required": false,
                "repeats": false,
                "options": {
                  "reference": "#vs2"
                },
                "group": [
                  {
                    "extension": [
                      {
                        "url": "http://www.healthintersections.com.au/fhir/Profile/metadata#type",
                        "valueString": "integer"
                      }
                    ],
                    "linkId": "Parameters.parameter.value[x]._integer",
                    "question": [
                      {
                        "linkId": "Parameters.parameter.value[x]._integer.value",
                        "text": "integer",
                        "type": "integer",
                        "required": false,
                        "repeats": false
                      }
                    ]
                  },
                  {
                    "extension": [
                      {
                        "url": "http://www.healthintersections.com.au/fhir/Profile/metadata#type",
                        "valueString": "decimal"
                      }
                    ],
                    "linkId": "Parameters.parameter.value[x]._decimal",
                    "question": [
                      {
                        "linkId": "Parameters.parameter.value[x]._decimal.value",
                        "text": "decimal",
                        "type": "decimal",
                        "required": false,
                        "repeats": false
                      }
                    ]
                  },
                  {
                    "extension": [
                      {
                        "url": "http://www.healthintersections.com.au/fhir/Profile/metadata#type",
                        "valueString": "datetime"
                      }
                    ],
                    "linkId": "Parameters.parameter.value[x]._dateTime",
                    "question": [
                      {
                        "linkId": "Parameters.parameter.value[x]._dateTime.value",
                        "text": "dateTime",
                        "type": "dateTime",
                        "required": false,
                        "repeats": false
                      }
                    ]
                  },
                  {
                    "extension": [
                      {
                        "url": "http://www.healthintersections.com.au/fhir/Profile/metadata#type",
                        "valueString": "datetime"
                      }
                    ],
                    "linkId": "Parameters.parameter.value[x]._date",
                    "question": [
                      {
                        "linkId": "Parameters.parameter.value[x]._date.value",
                        "text": "date",
                        "type": "dateTime",
                        "required": false,
                        "repeats": false
                      }
                    ]
                  },
                  {
                    "extension": [
                      {
                        "url": "http://www.healthintersections.com.au/fhir/Profile/metadata#type",
                        "valueString": "instant"
                      }
                    ],
                    "linkId": "Parameters.parameter.value[x]._instant",
                    "question": [
                      {
                        "linkId": "Parameters.parameter.value[x]._instant.value",
                        "text": "instant",
                        "type": "instant",
                        "required": false,
                        "repeats": false
                      }
                    ]
                  },
                  {
                    "extension": [
                      {
                        "url": "http://www.healthintersections.com.au/fhir/Profile/metadata#type",
                        "valueString": "time"
                      }
                    ],
                    "linkId": "Parameters.parameter.value[x]._time",
                    "question": [
                      {
                        "linkId": "Parameters.parameter.value[x]._time.value",
                        "text": "time",
                        "type": "time",
                        "required": false,
                        "repeats": false
                      }
                    ]
                  },
                  {
                    "extension": [
                      {
                        "url": "http://www.healthintersections.com.au/fhir/Profile/metadata#type",
                        "valueString": "string"
                      }
                    ],
                    "linkId": "Parameters.parameter.value[x]._string",
                    "question": [
                      {
                        "linkId": "Parameters.parameter.value[x]._string.value",
                        "text": "string",
                        "type": "string",
                        "required": false,
                        "repeats": false
                      }
                    ]
                  },
                  {
                    "extension": [
                      {
                        "url": "http://www.healthintersections.com.au/fhir/Profile/metadata#type",
                        "valueString": "uri"
                      }
                    ],
                    "linkId": "Parameters.parameter.value[x]._uri",
                    "question": [
                      {
                        "linkId": "Parameters.parameter.value[x]._uri.value",
                        "text": "uri",
                        "type": "string",
                        "required": false,
                        "repeats": false
                      }
                    ]
                  },
                  {
                    "extension": [
                      {
                        "url": "http://www.healthintersections.com.au/fhir/Profile/metadata#type",
                        "valueString": "boolean"
                      }
                    ],
                    "linkId": "Parameters.parameter.value[x]._boolean",
                    "question": [
                      {
                        "linkId": "Parameters.parameter.value[x]._boolean.value",
                        "text": "boolean",
                        "type": "boolean",
                        "required": false,
                        "repeats": false
                      }
                    ]
                  },
                  {
                    "extension": [
                      {
                        "url": "http://www.healthintersections.com.au/fhir/Profile/metadata#type",
                        "valueString": "Coding"
                      }
                    ],
                    "linkId": "Parameters.parameter.value[x]._Coding",
                    "question": [
                      {
                        "linkId": "Parameters.parameter.value[x]._Coding.value",
                        "text": "Coding",
                        "type": "open-choice",
                        "required": false,
                        "repeats": false
                      }
                    ]
                  },
                  {
                    "extension": [
                      {
                        "url": "http://www.healthintersections.com.au/fhir/Profile/metadata#type",
                        "valueString": "CodeableConcept"
                      }
                    ],
                    "linkId": "Parameters.parameter.value[x]._CodeableConcept",
                    "text": "CodeableConcept",
                    "question": [
                      {
                        "linkId": "Parameters.parameter.value[x]._CodeableConcept.coding",
                        "text": "code:",
                        "type": "open-choice",
                        "required": false,
                        "repeats": false
                      },
                      {
                        "linkId": "Parameters.parameter.value[x]._CodeableConcept.text",
                        "text": "text:",
                        "type": "string",
                        "required": false,
                        "repeats": false
                      }
                    ]
                  },
                  {
                    "extension": [
                      {
                        "url": "http://www.healthintersections.com.au/fhir/Profile/metadata#type",
                        "valueString": "Attachment"
                      }
                    ],
                    "linkId": "Parameters.parameter.value[x]._Attachment",
                    "text": "Attachment"
                  },
                  {
                    "extension": [
                      {
                        "url": "http://www.healthintersections.com.au/fhir/Profile/metadata#type",
                        "valueString": "Identifier"
                      }
                    ],
                    "linkId": "Parameters.parameter.value[x]._Identifier",
                    "text": "Identifier",
                    "question": [
                      {
                        "linkId": "Parameters.parameter.value[x]._Identifier.label",
                        "text": "label:",
                        "type": "string",
                        "required": false,
                        "repeats": false
                      },
                      {
                        "linkId": "Parameters.parameter.value[x]._Identifier.system",
                        "text": "system:",
                        "type": "string",
                        "required": false,
                        "repeats": false
                      },
                      {
                        "linkId": "Parameters.parameter.value[x]._Identifier.value",
                        "text": "value:",
                        "type": "string",
                        "required": false,
                        "repeats": false
                      }
                    ]
                  },
                  {
                    "extension": [
                      {
                        "url": "http://www.healthintersections.com.au/fhir/Profile/metadata#type",
                        "valueString": "Quantity"
                      }
                    ],
                    "linkId": "Parameters.parameter.value[x]._Quantity",
                    "text": "Quantity",
                    "question": [
                      {
                        "linkId": "Parameters.parameter.value[x]._Quantity.comparator",
                        "text": "comp:",
                        "type": "choice",
                        "required": false,
                        "repeats": false
                      },
                      {
                        "linkId": "Parameters.parameter.value[x]._Quantity.value",
                        "text": "value:",
                        "type": "decimal",
                        "required": false,
                        "repeats": false
                      },
                      {
                        "linkId": "Parameters.parameter.value[x]._Quantity.units",
                        "text": "units:",
                        "type": "string",
                        "required": false,
                        "repeats": false
                      },
                      {
                        "linkId": "Parameters.parameter.value[x]._Quantity.code",
                        "text": "coded units:",
                        "type": "string",
                        "required": false,
                        "repeats": false
                      },
                      {
                        "linkId": "Parameters.parameter.value[x]._Quantity.system",
                        "text": "units system:",
                        "type": "string",
                        "required": false,
                        "repeats": false
                      }
                    ]
                  },
                  {
                    "extension": [
                      {
                        "url": "http://www.healthintersections.com.au/fhir/Profile/metadata#type",
                        "valueString": "Range"
                      }
                    ],
                    "linkId": "Parameters.parameter.value[x]._Range",
                    "text": "Range",
                    "question": [
                      {
                        "linkId": "Parameters.parameter.value[x]._Range.low",
                        "text": "low:",
                        "type": "decimal",
                        "required": false,
                        "repeats": false
                      },
                      {
                        "linkId": "Parameters.parameter.value[x]._Range.high",
                        "text": "high:",
                        "type": "decimal",
                        "required": false,
                        "repeats": false
                      },
                      {
                        "linkId": "Parameters.parameter.value[x]._Range.units",
                        "text": "units:",
                        "type": "string",
                        "required": false,
                        "repeats": false
                      }
                    ]
                  },
                  {
                    "extension": [
                      {
                        "url": "http://www.healthintersections.com.au/fhir/Profile/metadata#type",
                        "valueString": "Period"
                      }
                    ],
                    "linkId": "Parameters.parameter.value[x]._Period",
                    "text": "Period",
                    "question": [
                      {
                        "linkId": "Parameters.parameter.value[x]._Period.low",
                        "text": "start:",
                        "type": "dateTime",
                        "required": false,
                        "repeats": false
                      },
                      {
                        "linkId": "Parameters.parameter.value[x]._Period.end",
                        "text": "end:",
                        "type": "dateTime",
                        "required": false,
                        "repeats": false
                      }
                    ]
                  },
                  {
                    "extension": [
                      {
                        "url": "http://www.healthintersections.com.au/fhir/Profile/metadata#type",
                        "valueString": "Ratio"
                      }
                    ],
                    "linkId": "Parameters.parameter.value[x]._Ratio",
                    "text": "Ratio",
                    "question": [
                      {
                        "linkId": "Parameters.parameter.value[x]._Ratio.numerator",
                        "text": "numerator:",
                        "type": "decimal",
                        "required": false,
                        "repeats": false
                      },
                      {
                        "linkId": "Parameters.parameter.value[x]._Ratio.denominator",
                        "text": "denominator:",
                        "type": "decimal",
                        "required": false,
                        "repeats": false
                      },
                      {
                        "linkId": "Parameters.parameter.value[x]._Ratio.units",
                        "text": "units:",
                        "type": "string",
                        "required": false,
                        "repeats": false
                      }
                    ]
                  },
                  {
                    "extension": [
                      {
                        "url": "http://www.healthintersections.com.au/fhir/Profile/metadata#type",
                        "valueString": "Name"
                      }
                    ],
                    "linkId": "Parameters.parameter.value[x]._HumanName",
                    "text": "HumanName",
                    "question": [
                      {
                        "linkId": "Parameters.parameter.value[x]._HumanName.text",
                        "text": "text:",
                        "type": "string",
                        "required": false,
                        "repeats": false
                      },
                      {
                        "linkId": "Parameters.parameter.value[x]._HumanName.family",
                        "text": "family:",
                        "type": "string",
                        "required": false,
                        "repeats": true
                      },
                      {
                        "linkId": "Parameters.parameter.value[x]._HumanName.given",
                        "text": "given:",
                        "type": "string",
                        "required": false,
                        "repeats": true
                      }
                    ]
                  },
                  {
                    "extension": [
                      {
                        "url": "http://www.healthintersections.com.au/fhir/Profile/metadata#type",
                        "valueString": "Address"
                      }
                    ],
                    "linkId": "Parameters.parameter.value[x]._Address",
                    "text": "Address",
                    "question": [
                      {
                        "linkId": "Parameters.parameter.value[x]._Address.text",
                        "text": "text:",
                        "type": "string",
                        "required": false,
                        "repeats": false
                      },
                      {
                        "linkId": "Parameters.parameter.value[x]._Address.line",
                        "text": "line:",
                        "type": "string",
                        "required": false,
                        "repeats": true
                      },
                      {
                        "linkId": "Parameters.parameter.value[x]._Address.city",
                        "text": "city:",
                        "type": "string",
                        "required": false,
                        "repeats": false
                      },
                      {
                        "linkId": "Parameters.parameter.value[x]._Address.state",
                        "text": "state:",
                        "type": "string",
                        "required": false,
                        "repeats": false
                      },
                      {
                        "linkId": "Parameters.parameter.value[x]._Address.postalCode",
                        "text": "post code:",
                        "type": "string",
                        "required": false,
                        "repeats": false
                      },
                      {
                        "linkId": "Parameters.parameter.value[x]._Address.country",
                        "text": "country:",
                        "type": "string",
                        "required": false,
                        "repeats": false
                      },
                      {
                        "linkId": "Parameters.parameter.value[x]._Address.use",
                        "text": "use:",
                        "type": "choice",
                        "required": false,
                        "repeats": false
                      }
                    ]
                  },
                  {
                    "extension": [
                      {
                        "url": "http://www.healthintersections.com.au/fhir/Profile/metadata#type",
                        "valueString": "ContactPoint"
                      }
                    ],
                    "linkId": "Parameters.parameter.value[x]._ContactPoint",
                    "text": "ContactPoint",
                    "question": [
                      {
                        "linkId": "Parameters.parameter.value[x]._ContactPoint.system",
                        "text": "type:",
                        "type": "choice",
                        "required": false,
                        "repeats": false
                      },
                      {
                        "linkId": "Parameters.parameter.value[x]._ContactPoint.value",
                        "text": "value:",
                        "type": "string",
                        "required": false,
                        "repeats": false
                      },
                      {
                        "linkId": "Parameters.parameter.value[x]._ContactPoint.use",
                        "text": "use:",
                        "type": "choice",
                        "required": false,
                        "repeats": false
                      }
                    ]
                  },
                  {
                    "extension": [
                      {
                        "url": "http://www.healthintersections.com.au/fhir/Profile/metadata#type",
                        "valueString": "Schedule"
                      }
                    ],
                    "linkId": "Parameters.parameter.value[x]._Timing",
                    "text": "Timing"
                  },
                  {
                    "extension": [
                      {
                        "url": "http://www.healthintersections.com.au/fhir/Profile/metadata#type",
                        "valueString": "Reference"
                      }
                    ],
                    "linkId": "Parameters.parameter.value[x]._Reference",
                    "question": [
                      {
                        "extension": [
                          {
                            "url": "http://www.healthintersections.com.au/fhir/Profile/metadata#reference",
                            "valueString": "/_search?subject=$subj&patient=$subj&encounter=$encounter"
                          }
                        ],
                        "linkId": "Parameters.parameter.value[x]._Reference.value",
                        "text": "Reference",
                        "type": "reference",
                        "required": false,
                        "repeats": false
                      }
                    ]
                  }
                ]
              }
            ]
          },
          {
            "extension": [
              {
                "url": "http://hl7.org/fhir/Profile/questionnaire-extensions#flyover",
                "valueString": "If the parameter is a whole resource."
              }
            ],
            "linkId": "Parameters.parameter.resource",
            "text": "If parameter is a whole resource",
            "required": false,
            "repeats": true
          },
          {
            "extension": [
              {
                "url": "http://hl7.org/fhir/Profile/questionnaire-extensions#flyover",
                "valueString": "A named part of a parameter. In many implementation context, a set of named parts is known as a \"Tuple\"."
              }
            ],
            "linkId": "Parameters.parameter.part",
            "title": "Named part of a parameter (e.g. Tuple)",
            "text": "Only one level of tuples is allowed.",
            "required": false,
            "repeats": true,
            "group": [
              {
                "extension": [
                  {
                    "url": "http://hl7.org/fhir/Profile/questionnaire-extensions#flyover",
                    "valueString": "unique id for the element within a resource (for internal references)."
                  },
                  {
                    "url": "http://www.healthintersections.com.au/fhir/Profile/metadata#type",
                    "valueString": "string"
                  }
                ],
                "linkId": "Parameters.parameter.part.id",
                "required": false,
                "repeats": true,
                "question": [
                  {
                    "linkId": "Parameters.parameter.part.id.value",
                    "text": "xml:id (or equivalent in JSON)",
                    "type": "string",
                    "required": false,
                    "repeats": false
                  }
                ]
              },
              {
                "extension": [
                  {
                    "url": "http://hl7.org/fhir/Profile/questionnaire-extensions#flyover",
                    "valueString": "The name of the parameter (reference to the operation definition)."
                  },
                  {
                    "url": "http://www.healthintersections.com.au/fhir/Profile/metadata#type",
                    "valueString": "string"
                  }
                ],
                "linkId": "Parameters.parameter.part.name",
                "required": true,
                "repeats": true,
                "question": [
                  {
                    "linkId": "Parameters.parameter.part.name.value",
                    "text": "Name from the definition",
                    "type": "string",
                    "required": false,
                    "repeats": false
                  }
                ]
              },
              {
                "extension": [
                  {
                    "url": "http://hl7.org/fhir/Profile/questionnaire-extensions#flyover",
                    "valueString": "The value of the parameter. If there is no value, simply omit the parameter."
                  }
                ],
                "linkId": "Parameters.parameter.part.value[x]",
                "text": "Value of the part",
                "required": false,
                "repeats": true,
                "question": [
                  {
                    "linkId": "Parameters.parameter.part.value[x]._type",
                    "text": "type",
                    "type": "choice",
                    "required": false,
                    "repeats": false,
                    "options": {
                      "reference": "#vs3"
                    },
                    "group": [
                      {
                        "extension": [
                          {
                            "url": "http://www.healthintersections.com.au/fhir/Profile/metadata#type",
                            "valueString": "integer"
                          }
                        ],
                        "linkId": "Parameters.parameter.part.value[x]._integer",
                        "question": [
                          {
                            "linkId": "Parameters.parameter.part.value[x]._integer.value",
                            "text": "integer",
                            "type": "integer",
                            "required": false,
                            "repeats": false
                          }
                        ]
                      },
                      {
                        "extension": [
                          {
                            "url": "http://www.healthintersections.com.au/fhir/Profile/metadata#type",
                            "valueString": "decimal"
                          }
                        ],
                        "linkId": "Parameters.parameter.part.value[x]._decimal",
                        "question": [
                          {
                            "linkId": "Parameters.parameter.part.value[x]._decimal.value",
                            "text": "decimal",
                            "type": "decimal",
                            "required": false,
                            "repeats": false
                          }
                        ]
                      },
                      {
                        "extension": [
                          {
                            "url": "http://www.healthintersections.com.au/fhir/Profile/metadata#type",
                            "valueString": "datetime"
                          }
                        ],
                        "linkId": "Parameters.parameter.part.value[x]._dateTime",
                        "question": [
                          {
                            "linkId": "Parameters.parameter.part.value[x]._dateTime.value",
                            "text": "dateTime",
                            "type": "dateTime",
                            "required": false,
                            "repeats": false
                          }
                        ]
                      },
                      {
                        "extension": [
                          {
                            "url": "http://www.healthintersections.com.au/fhir/Profile/metadata#type",
                            "valueString": "datetime"
                          }
                        ],
                        "linkId": "Parameters.parameter.part.value[x]._date",
                        "question": [
                          {
                            "linkId": "Parameters.parameter.part.value[x]._date.value",
                            "text": "date",
                            "type": "dateTime",
                            "required": false,
                            "repeats": false
                          }
                        ]
                      },
                      {
                        "extension": [
                          {
                            "url": "http://www.healthintersections.com.au/fhir/Profile/metadata#type",
                            "valueString": "instant"
                          }
                        ],
                        "linkId": "Parameters.parameter.part.value[x]._instant",
                        "question": [
                          {
                            "linkId": "Parameters.parameter.part.value[x]._instant.value",
                            "text": "instant",
                            "type": "instant",
                            "required": false,
                            "repeats": false
                          }
                        ]
                      },
                      {
                        "extension": [
                          {
                            "url": "http://www.healthintersections.com.au/fhir/Profile/metadata#type",
                            "valueString": "time"
                          }
                        ],
                        "linkId": "Parameters.parameter.part.value[x]._time",
                        "question": [
                          {
                            "linkId": "Parameters.parameter.part.value[x]._time.value",
                            "text": "time",
                            "type": "time",
                            "required": false,
                            "repeats": false
                          }
                        ]
                      },
                      {
                        "extension": [
                          {
                            "url": "http://www.healthintersections.com.au/fhir/Profile/metadata#type",
                            "valueString": "string"
                          }
                        ],
                        "linkId": "Parameters.parameter.part.value[x]._string",
                        "question": [
                          {
                            "linkId": "Parameters.parameter.part.value[x]._string.value",
                            "text": "string",
                            "type": "string",
                            "required": false,
                            "repeats": false
                          }
                        ]
                      },
                      {
                        "extension": [
                          {
                            "url": "http://www.healthintersections.com.au/fhir/Profile/metadata#type",
                            "valueString": "uri"
                          }
                        ],
                        "linkId": "Parameters.parameter.part.value[x]._uri",
                        "question": [
                          {
                            "linkId": "Parameters.parameter.part.value[x]._uri.value",
                            "text": "uri",
                            "type": "string",
                            "required": false,
                            "repeats": false
                          }
                        ]
                      },
                      {
                        "extension": [
                          {
                            "url": "http://www.healthintersections.com.au/fhir/Profile/metadata#type",
                            "valueString": "boolean"
                          }
                        ],
                        "linkId": "Parameters.parameter.part.value[x]._boolean",
                        "question": [
                          {
                            "linkId": "Parameters.parameter.part.value[x]._boolean.value",
                            "text": "boolean",
                            "type": "boolean",
                            "required": false,
                            "repeats": false
                          }
                        ]
                      },
                      {
                        "extension": [
                          {
                            "url": "http://www.healthintersections.com.au/fhir/Profile/metadata#type",
                            "valueString": "Coding"
                          }
                        ],
                        "linkId": "Parameters.parameter.part.value[x]._Coding",
                        "question": [
                          {
                            "linkId": "Parameters.parameter.part.value[x]._Coding.value",
                            "text": "Coding",
                            "type": "open-choice",
                            "required": false,
                            "repeats": false
                          }
                        ]
                      },
                      {
                        "extension": [
                          {
                            "url": "http://www.healthintersections.com.au/fhir/Profile/metadata#type",
                            "valueString": "CodeableConcept"
                          }
                        ],
                        "linkId": "Parameters.parameter.part.value[x]._CodeableConcept",
                        "text": "CodeableConcept",
                        "question": [
                          {
                            "linkId": "Parameters.parameter.part.value[x]._CodeableConcept.coding",
                            "text": "code:",
                            "type": "open-choice",
                            "required": false,
                            "repeats": false
                          },
                          {
                            "linkId": "Parameters.parameter.part.value[x]._CodeableConcept.text",
                            "text": "text:",
                            "type": "string",
                            "required": false,
                            "repeats": false
                          }
                        ]
                      },
                      {
                        "extension": [
                          {
                            "url": "http://www.healthintersections.com.au/fhir/Profile/metadata#type",
                            "valueString": "Attachment"
                          }
                        ],
                        "linkId": "Parameters.parameter.part.value[x]._Attachment",
                        "text": "Attachment"
                      },
                      {
                        "extension": [
                          {
                            "url": "http://www.healthintersections.com.au/fhir/Profile/metadata#type",
                            "valueString": "Identifier"
                          }
                        ],
                        "linkId": "Parameters.parameter.part.value[x]._Identifier",
                        "text": "Identifier",
                        "question": [
                          {
                            "linkId": "Parameters.parameter.part.value[x]._Identifier.label",
                            "text": "label:",
                            "type": "string",
                            "required": false,
                            "repeats": false
                          },
                          {
                            "linkId": "Parameters.parameter.part.value[x]._Identifier.system",
                            "text": "system:",
                            "type": "string",
                            "required": false,
                            "repeats": false
                          },
                          {
                            "linkId": "Parameters.parameter.part.value[x]._Identifier.value",
                            "text": "value:",
                            "type": "string",
                            "required": false,
                            "repeats": false
                          }
                        ]
                      },
                      {
                        "extension": [
                          {
                            "url": "http://www.healthintersections.com.au/fhir/Profile/metadata#type",
                            "valueString": "Quantity"
                          }
                        ],
                        "linkId": "Parameters.parameter.part.value[x]._Quantity",
                        "text": "Quantity",
                        "question": [
                          {
                            "linkId": "Parameters.parameter.part.value[x]._Quantity.comparator",
                            "text": "comp:",
                            "type": "choice",
                            "required": false,
                            "repeats": false
                          },
                          {
                            "linkId": "Parameters.parameter.part.value[x]._Quantity.value",
                            "text": "value:",
                            "type": "decimal",
                            "required": false,
                            "repeats": false
                          },
                          {
                            "linkId": "Parameters.parameter.part.value[x]._Quantity.units",
                            "text": "units:",
                            "type": "string",
                            "required": false,
                            "repeats": false
                          },
                          {
                            "linkId": "Parameters.parameter.part.value[x]._Quantity.code",
                            "text": "coded units:",
                            "type": "string",
                            "required": false,
                            "repeats": false
                          },
                          {
                            "linkId": "Parameters.parameter.part.value[x]._Quantity.system",
                            "text": "units system:",
                            "type": "string",
                            "required": false,
                            "repeats": false
                          }
                        ]
                      },
                      {
                        "extension": [
                          {
                            "url": "http://www.healthintersections.com.au/fhir/Profile/metadata#type",
                            "valueString": "Range"
                          }
                        ],
                        "linkId": "Parameters.parameter.part.value[x]._Range",
                        "text": "Range",
                        "question": [
                          {
                            "linkId": "Parameters.parameter.part.value[x]._Range.low",
                            "text": "low:",
                            "type": "decimal",
                            "required": false,
                            "repeats": false
                          },
                          {
                            "linkId": "Parameters.parameter.part.value[x]._Range.high",
                            "text": "high:",
                            "type": "decimal",
                            "required": false,
                            "repeats": false
                          },
                          {
                            "linkId": "Parameters.parameter.part.value[x]._Range.units",
                            "text": "units:",
                            "type": "string",
                            "required": false,
                            "repeats": false
                          }
                        ]
                      },
                      {
                        "extension": [
                          {
                            "url": "http://www.healthintersections.com.au/fhir/Profile/metadata#type",
                            "valueString": "Period"
                          }
                        ],
                        "linkId": "Parameters.parameter.part.value[x]._Period",
                        "text": "Period",
                        "question": [
                          {
                            "linkId": "Parameters.parameter.part.value[x]._Period.low",
                            "text": "start:",
                            "type": "dateTime",
                            "required": false,
                            "repeats": false
                          },
                          {
                            "linkId": "Parameters.parameter.part.value[x]._Period.end",
                            "text": "end:",
                            "type": "dateTime",
                            "required": false,
                            "repeats": false
                          }
                        ]
                      },
                      {
                        "extension": [
                          {
                            "url": "http://www.healthintersections.com.au/fhir/Profile/metadata#type",
                            "valueString": "Ratio"
                          }
                        ],
                        "linkId": "Parameters.parameter.part.value[x]._Ratio",
                        "text": "Ratio",
                        "question": [
                          {
                            "linkId": "Parameters.parameter.part.value[x]._Ratio.numerator",
                            "text": "numerator:",
                            "type": "decimal",
                            "required": false,
                            "repeats": false
                          },
                          {
                            "linkId": "Parameters.parameter.part.value[x]._Ratio.denominator",
                            "text": "denominator:",
                            "type": "decimal",
                            "required": false,
                            "repeats": false
                          },
                          {
                            "linkId": "Parameters.parameter.part.value[x]._Ratio.units",
                            "text": "units:",
                            "type": "string",
                            "required": false,
                            "repeats": false
                          }
                        ]
                      },
                      {
                        "extension": [
                          {
                            "url": "http://www.healthintersections.com.au/fhir/Profile/metadata#type",
                            "valueString": "Name"
                          }
                        ],
                        "linkId": "Parameters.parameter.part.value[x]._HumanName",
                        "text": "HumanName",
                        "question": [
                          {
                            "linkId": "Parameters.parameter.part.value[x]._HumanName.text",
                            "text": "text:",
                            "type": "string",
                            "required": false,
                            "repeats": false
                          },
                          {
                            "linkId": "Parameters.parameter.part.value[x]._HumanName.family",
                            "text": "family:",
                            "type": "string",
                            "required": false,
                            "repeats": true
                          },
                          {
                            "linkId": "Parameters.parameter.part.value[x]._HumanName.given",
                            "text": "given:",
                            "type": "string",
                            "required": false,
                            "repeats": true
                          }
                        ]
                      },
                      {
                        "extension": [
                          {
                            "url": "http://www.healthintersections.com.au/fhir/Profile/metadata#type",
                            "valueString": "Address"
                          }
                        ],
                        "linkId": "Parameters.parameter.part.value[x]._Address",
                        "text": "Address",
                        "question": [
                          {
                            "linkId": "Parameters.parameter.part.value[x]._Address.text",
                            "text": "text:",
                            "type": "string",
                            "required": false,
                            "repeats": false
                          },
                          {
                            "linkId": "Parameters.parameter.part.value[x]._Address.line",
                            "text": "line:",
                            "type": "string",
                            "required": false,
                            "repeats": true
                          },
                          {
                            "linkId": "Parameters.parameter.part.value[x]._Address.city",
                            "text": "city:",
                            "type": "string",
                            "required": false,
                            "repeats": false
                          },
                          {
                            "linkId": "Parameters.parameter.part.value[x]._Address.state",
                            "text": "state:",
                            "type": "string",
                            "required": false,
                            "repeats": false
                          },
                          {
                            "linkId": "Parameters.parameter.part.value[x]._Address.postalCode",
                            "text": "post code:",
                            "type": "string",
                            "required": false,
                            "repeats": false
                          },
                          {
                            "linkId": "Parameters.parameter.part.value[x]._Address.country",
                            "text": "country:",
                            "type": "string",
                            "required": false,
                            "repeats": false
                          },
                          {
                            "linkId": "Parameters.parameter.part.value[x]._Address.use",
                            "text": "use:",
                            "type": "choice",
                            "required": false,
                            "repeats": false
                          }
                        ]
                      },
                      {
                        "extension": [
                          {
                            "url": "http://www.healthintersections.com.au/fhir/Profile/metadata#type",
                            "valueString": "ContactPoint"
                          }
                        ],
                        "linkId": "Parameters.parameter.part.value[x]._ContactPoint",
                        "text": "ContactPoint",
                        "question": [
                          {
                            "linkId": "Parameters.parameter.part.value[x]._ContactPoint.system",
                            "text": "type:",
                            "type": "choice",
                            "required": false,
                            "repeats": false
                          },
                          {
                            "linkId": "Parameters.parameter.part.value[x]._ContactPoint.value",
                            "text": "value:",
                            "type": "string",
                            "required": false,
                            "repeats": false
                          },
                          {
                            "linkId": "Parameters.parameter.part.value[x]._ContactPoint.use",
                            "text": "use:",
                            "type": "choice",
                            "required": false,
                            "repeats": false
                          }
                        ]
                      },
                      {
                        "extension": [
                          {
                            "url": "http://www.healthintersections.com.au/fhir/Profile/metadata#type",
                            "valueString": "Schedule"
                          }
                        ],
                        "linkId": "Parameters.parameter.part.value[x]._Timing",
                        "text": "Timing"
                      },
                      {
                        "extension": [
                          {
                            "url": "http://www.healthintersections.com.au/fhir/Profile/metadata#type",
                            "valueString": "Reference"
                          }
                        ],
                        "linkId": "Parameters.parameter.part.value[x]._Reference",
                        "question": [
                          {
                            "extension": [
                              {
                                "url": "http://www.healthintersections.com.au/fhir/Profile/metadata#reference",
                                "valueString": "/_search?subject=$subj&patient=$subj&encounter=$encounter"
                              }
                            ],
                            "linkId": "Parameters.parameter.part.value[x]._Reference.value",
                            "text": "Reference",
                            "type": "reference",
                            "required": false,
                            "repeats": false
                          }
                        ]
                      }
                    ]
                  }
                ]
              },
              {
                "extension": [
                  {
                    "url": "http://hl7.org/fhir/Profile/questionnaire-extensions#flyover",
                    "valueString": "If the parameter is a whole resource."
                  }
                ],
                "linkId": "Parameters.parameter.part.resource",
                "text": "If part is a whole resource",
                "required": false,
                "repeats": true
              }
            ]
          }
        ]
      }
    ]
  }
}