<?xml version="1.0" encoding="UTF-8"?>

<Questionnaire xmlns="http://hl7.org/fhir">
  <id value="qs1"/>
  <contained>
    <ValueSet>
      <id value="vs2"/>
      <url value="urn:uuid:f8e38191-4957-434e-9e44-aef5436c6d9b"/>
      <name value="Type options for Parameters.parameter.value[x]"/>
      <description value="Type options for Parameters.parameter.value[x]"/>
      <status value="active"/>
      <expansion>
        <identifier value="urn:uuid:72e16133-c67a-4e52-8080-490f25df083b"/>
        <timestamp value="2015-03-23T23:58:37+00:00"/>
        <contains>
          <system value="http://hl7.org/fhir/data-types"/>
          <code value="integer"/>
          <display value="integer"/>
        </contains>
        <contains>
          <system value="http://hl7.org/fhir/data-types"/>
          <code value="decimal"/>
          <display value="decimal"/>
        </contains>
        <contains>
          <system value="http://hl7.org/fhir/data-types"/>
          <code value="dateTime"/>
          <display value="dateTime"/>
        </contains>
        <contains>
          <system value="http://hl7.org/fhir/data-types"/>
          <code value="date"/>
          <display value="date"/>
        </contains>
        <contains>
          <system value="http://hl7.org/fhir/data-types"/>
          <code value="instant"/>
          <display value="instant"/>
        </contains>
        <contains>
          <system value="http://hl7.org/fhir/data-types"/>
          <code value="time"/>
          <display value="time"/>
        </contains>
        <contains>
          <system value="http://hl7.org/fhir/data-types"/>
          <code value="string"/>
          <display value="string"/>
        </contains>
        <contains>
          <system value="http://hl7.org/fhir/data-types"/>
          <code value="uri"/>
          <display value="uri"/>
        </contains>
        <contains>
          <system value="http://hl7.org/fhir/data-types"/>
          <code value="boolean"/>
          <display value="boolean"/>
        </contains>
        <contains>
          <system value="http://hl7.org/fhir/data-types"/>
          <code value="Coding"/>
          <display value="Coding"/>
        </contains>
        <contains>
          <system value="http://hl7.org/fhir/data-types"/>
          <code value="CodeableConcept"/>
          <display value="CodeableConcept"/>
        </contains>
        <contains>
          <system value="http://hl7.org/fhir/data-types"/>
          <code value="Attachment"/>
          <display value="Attachment"/>
        </contains>
        <contains>
          <system value="http://hl7.org/fhir/data-types"/>
          <code value="Identifier"/>
          <display value="Identifier"/>
        </contains>
        <contains>
          <system value="http://hl7.org/fhir/data-types"/>
          <code value="Quantity"/>
          <display value="Quantity"/>
        </contains>
        <contains>
          <system value="http://hl7.org/fhir/data-types"/>
          <code value="Range"/>
          <display value="Range"/>
        </contains>
        <contains>
          <system value="http://hl7.org/fhir/data-types"/>
          <code value="Period"/>
          <display value="Period"/>
        </contains>
        <contains>
          <system value="http://hl7.org/fhir/data-types"/>
          <code value="Ratio"/>
          <display value="Ratio"/>
        </contains>
        <contains>
          <system value="http://hl7.org/fhir/data-types"/>
          <code value="HumanName"/>
          <display value="HumanName"/>
        </contains>
        <contains>
          <system value="http://hl7.org/fhir/data-types"/>
          <code value="Address"/>
          <display value="Address"/>
        </contains>
        <contains>
          <system value="http://hl7.org/fhir/data-types"/>
          <code value="ContactPoint"/>
          <display value="ContactPoint"/>
        </contains>
        <contains>
          <system value="http://hl7.org/fhir/data-types"/>
          <code value="Timing"/>
          <display value="Timing"/>
        </contains>
        <contains>
          <system value="http://hl7.org/fhir/data-types"/>
          <code value="Reference"/>
          <display value="Reference"/>
        </contains>
      </expansion>
    </ValueSet>
  </contained>
  <contained>
    <ValueSet>
      <id value="vs3"/>
      <url value="urn:uuid:d10967d3-dd4b-4b0a-b070-078d0e09f722"/>
      <name value="Type options for Parameters.parameter.part.value[x]"/>
      <description value="Type options for Parameters.parameter.part.value[x]"/>
      <status value="active"/>
      <expansion>
        <identifier value="urn:uuid:1edb3ca5-967d-4e30-9a2d-52ca2c5baac4"/>
        <timestamp value="2015-03-23T23:58:37+00:00"/>
        <contains>
          <system value="http://hl7.org/fhir/data-types"/>
          <code value="integer"/>
          <display value="integer"/>
        </contains>
        <contains>
          <system value="http://hl7.org/fhir/data-types"/>
          <code value="decimal"/>
          <display value="decimal"/>
        </contains>
        <contains>
          <system value="http://hl7.org/fhir/data-types"/>
          <code value="dateTime"/>
          <display value="dateTime"/>
        </contains>
        <contains>
          <system value="http://hl7.org/fhir/data-types"/>
          <code value="date"/>
          <display value="date"/>
        </contains>
        <contains>
          <system value="http://hl7.org/fhir/data-types"/>
          <code value="instant"/>
          <display value="instant"/>
        </contains>
        <contains>
          <system value="http://hl7.org/fhir/data-types"/>
          <code value="time"/>
          <display value="time"/>
        </contains>
        <contains>
          <system value="http://hl7.org/fhir/data-types"/>
          <code value="string"/>
          <display value="string"/>
        </contains>
        <contains>
          <system value="http://hl7.org/fhir/data-types"/>
          <code value="uri"/>
          <display value="uri"/>
        </contains>
        <contains>
          <system value="http://hl7.org/fhir/data-types"/>
          <code value="boolean"/>
          <display value="boolean"/>
        </contains>
        <contains>
          <system value="http://hl7.org/fhir/data-types"/>
          <code value="Coding"/>
          <display value="Coding"/>
        </contains>
        <contains>
          <system value="http://hl7.org/fhir/data-types"/>
          <code value="CodeableConcept"/>
          <display value="CodeableConcept"/>
        </contains>
        <contains>
          <system value="http://hl7.org/fhir/data-types"/>
          <code value="Attachment"/>
          <display value="Attachment"/>
        </contains>
        <contains>
          <system value="http://hl7.org/fhir/data-types"/>
          <code value="Identifier"/>
          <display value="Identifier"/>
        </contains>
        <contains>
          <system value="http://hl7.org/fhir/data-types"/>
          <code value="Quantity"/>
          <display value="Quantity"/>
        </contains>
        <contains>
          <system value="http://hl7.org/fhir/data-types"/>
          <code value="Range"/>
          <display value="Range"/>
        </contains>
        <contains>
          <system value="http://hl7.org/fhir/data-types"/>
          <code value="Period"/>
          <display value="Period"/>
        </contains>
        <contains>
          <system value="http://hl7.org/fhir/data-types"/>
          <code value="Ratio"/>
          <display value="Ratio"/>
        </contains>
        <contains>
          <system value="http://hl7.org/fhir/data-types"/>
          <code value="HumanName"/>
          <display value="HumanName"/>
        </contains>
        <contains>
          <system value="http://hl7.org/fhir/data-types"/>
          <code value="Address"/>
          <display value="Address"/>
        </contains>
        <contains>
          <system value="http://hl7.org/fhir/data-types"/>
          <code value="ContactPoint"/>
          <display value="ContactPoint"/>
        </contains>
        <contains>
          <system value="http://hl7.org/fhir/data-types"/>
          <code value="Timing"/>
          <display value="Timing"/>
        </contains>
        <contains>
          <system value="http://hl7.org/fhir/data-types"/>
          <code value="Reference"/>
          <display value="Reference"/>
        </contains>
      </expansion>
    </ValueSet>
  </contained>
  <identifier>
    <system value="urn:ietf:rfc:3986"/>
  </identifier>
  <status value="draft"/>
  <date value="2015-03-23T23:56:59+00:00"/>
  <publisher value="HL7 FHIR Project"/>
  <group>
    <extension url="http://hl7.org/fhir/Profile/questionnaire-extensions#flyover">
      <valueString value="This special resource type is used to represent [operation](operations.html] request and response. It has no other use, and there is no RESTful end=point associated with it."/>
    </extension>
    <linkId value="Parameters"/>
    <title value="Operation Request or Response"/>
    <text value="The parameters that may be used are defined by the OperationDefinition resource."/>
    <required value="true"/>
    <repeats value="false"/>
    <group>
      <extension url="http://hl7.org/fhir/Profile/questionnaire-extensions#flyover">
        <valueString value="The logical id of the resource, as used in the url for the resoure. Once assigned, this value never changes. The only time that a resource does not have an id is when it is being submitted to the server using a create operation. Bundles always have an id, though it is usually a generated UUID."/>
      </extension>
      <extension url="http://www.healthintersections.com.au/fhir/Profile/metadata#type">
        <valueString value="string"/>
      </extension>
      <linkId value="Parameters.id"/>
      <required value="false"/>
      <repeats value="true"/>
      <question>
        <linkId value="Parameters.id.value"/>
        <text value="Logical id of this artefact"/>
        <type value="string"/>
        <required value="false"/>
        <repeats value="false"/>
      </question>
    </group>
    <group>
      <extension url="http://hl7.org/fhir/Profile/questionnaire-extensions#flyover">
        <valueString value="The metadata about the resource. This is content that is maintained by the infrastructure. Changes to the content may not always be associated with version changes to the resource."/>
      </extension>
      <linkId value="Parameters.meta"/>
      <text value="Metadata about the resource"/>
      <required value="false"/>
      <repeats value="true"/>
    </group>
    <group>
      <extension url="http://hl7.org/fhir/Profile/questionnaire-extensions#flyover">
        <valueString value="A reference to a set of rules that were followed when the resource was constructed, and which must be understood when processing the content. Asserting this rule set restricts the content to be only understood by a limited set of trading partners. This inherently limits the usefulness of the data in the long term. However the existing health eco-system is highly fractured, and not yet ready to define, collect, and exchange data in a generally computable sense. Wherever possible, implementers and/or specification writers should avoid using this element as much as possible."/>
      </extension>
      <extension url="http://www.healthintersections.com.au/fhir/Profile/metadata#type">
        <valueString value="uri"/>
      </extension>
      <linkId value="Parameters.implicitRules"/>
      <required value="false"/>
      <repeats value="true"/>
      <question>
        <linkId value="Parameters.implicitRules.value"/>
        <text value="A set of rules under which this content was created"/>
        <type value="string"/>
        <required value="false"/>
        <repeats value="false"/>
      </question>
    </group>
    <group>
      <extension url="http://hl7.org/fhir/Profile/questionnaire-extensions#flyover">
        <valueString value="The base language in which the resource is written. Language is provided to support indexing and accessibility (typically, services such as text to speech use the language tag). The html language tag in the narrative applies  to the narrative. The language tag on the resource may be used to specify the language of other presentations generated from the data in the resource

Not all the content has to be in the base language. The Resource.language should not be assumed to apply to the narrative automatically. If a language is specified, it should it also be specified on the div element in the html (see rules in HTML5 for information about the relationship between xml:lang and the html lang attribute)."/>
      </extension>
      <extension url="http://www.healthintersections.com.au/fhir/Profile/metadata#type">
        <valueString value="code"/>
      </extension>
      <linkId value="Parameters.language"/>
      <required value="false"/>
      <repeats value="true"/>
      <question>
        <linkId value="Parameters.language.value"/>
        <text value="language"/>
        <type value="choice"/>
        <required value="false"/>
        <repeats value="false"/>
      </question>
    </group>
    <group>
      <extension url="http://hl7.org/fhir/Profile/questionnaire-extensions#flyover">
        <valueString value="A parameter passed to or received from the operation."/>
      </extension>
      <linkId value="Parameters.parameter"/>
      <title value="Operation Parameter"/>
      <required value="false"/>
      <repeats value="true"/>
      <group>
        <extension url="http://hl7.org/fhir/Profile/questionnaire-extensions#flyover">
          <valueString value="unique id for the element within a resource (for internal references)."/>
        </extension>
        <extension url="http://www.healthintersections.com.au/fhir/Profile/metadata#type">
          <valueString value="string"/>
        </extension>
        <linkId value="Parameters.parameter.id"/>
        <required value="false"/>
        <repeats value="true"/>
        <question>
          <linkId value="Parameters.parameter.id.value"/>
          <text value="xml:id (or equivalent in JSON)"/>
          <type value="string"/>
          <required value="false"/>
          <repeats value="false"/>
        </question>
      </group>
      <group>
        <extension url="http://hl7.org/fhir/Profile/questionnaire-extensions#flyover">
          <valueString value="The name of the parameter (reference to the operation definition)."/>
        </extension>
        <extension url="http://www.healthintersections.com.au/fhir/Profile/metadata#type">
          <valueString value="string"/>
        </extension>
        <linkId value="Parameters.parameter.name"/>
        <required value="true"/>
        <repeats value="true"/>
        <question>
          <linkId value="Parameters.parameter.name.value"/>
          <text value="Name from the definition"/>
          <type value="string"/>
          <required value="false"/>
          <repeats value="false"/>
        </question>
      </group>
      <group>
        <extension url="http://hl7.org/fhir/Profile/questionnaire-extensions#flyover">
          <valueString value="If the parameter is a data type."/>
        </extension>
        <linkId value="Parameters.parameter.value[x]"/>
        <text value="If parameter is a data type"/>
        <required value="false"/>
        <repeats value="true"/>
        <question>
          <linkId value="Parameters.parameter.value[x]._type"/>
          <text value="type"/>
          <type value="choice"/>
          <required value="false"/>
          <repeats value="false"/>
          <options>
            <reference value="#vs2"/>
          </options>
          <group>
            <extension url="http://www.healthintersections.com.au/fhir/Profile/metadata#type">
              <valueString value="integer"/>
            </extension>
            <linkId value="Parameters.parameter.value[x]._integer"/>
            <question>
              <linkId value="Parameters.parameter.value[x]._integer.value"/>
              <text value="integer"/>
              <type value="integer"/>
              <required value="false"/>
              <repeats value="false"/>
            </question>
          </group>
          <group>
            <extension url="http://www.healthintersections.com.au/fhir/Profile/metadata#type">
              <valueString value="decimal"/>
            </extension>
            <linkId value="Parameters.parameter.value[x]._decimal"/>
            <question>
              <linkId value="Parameters.parameter.value[x]._decimal.value"/>
              <text value="decimal"/>
              <type value="decimal"/>
              <required value="false"/>
              <repeats value="false"/>
            </question>
          </group>
          <group>
            <extension url="http://www.healthintersections.com.au/fhir/Profile/metadata#type">
              <valueString value="datetime"/>
            </extension>
            <linkId value="Parameters.parameter.value[x]._dateTime"/>
            <question>
              <linkId value="Parameters.parameter.value[x]._dateTime.value"/>
              <text value="dateTime"/>
              <type value="dateTime"/>
              <required value="false"/>
              <repeats value="false"/>
            </question>
          </group>
          <group>
            <extension url="http://www.healthintersections.com.au/fhir/Profile/metadata#type">
              <valueString value="datetime"/>
            </extension>
            <linkId value="Parameters.parameter.value[x]._date"/>
            <question>
              <linkId value="Parameters.parameter.value[x]._date.value"/>
              <text value="date"/>
              <type value="dateTime"/>
              <required value="false"/>
              <repeats value="false"/>
            </question>
          </group>
          <group>
            <extension url="http://www.healthintersections.com.au/fhir/Profile/metadata#type">
              <valueString value="instant"/>
            </extension>
            <linkId value="Parameters.parameter.value[x]._instant"/>
            <question>
              <linkId value="Parameters.parameter.value[x]._instant.value"/>
              <text value="instant"/>
              <type value="instant"/>
              <required value="false"/>
              <repeats value="false"/>
            </question>
          </group>
          <group>
            <extension url="http://www.healthintersections.com.au/fhir/Profile/metadata#type">
              <valueString value="time"/>
            </extension>
            <linkId value="Parameters.parameter.value[x]._time"/>
            <question>
              <linkId value="Parameters.parameter.value[x]._time.value"/>
              <text value="time"/>
              <type value="time"/>
              <required value="false"/>
              <repeats value="false"/>
            </question>
          </group>
          <group>
            <extension url="http://www.healthintersections.com.au/fhir/Profile/metadata#type">
              <valueString value="string"/>
            </extension>
            <linkId value="Parameters.parameter.value[x]._string"/>
            <question>
              <linkId value="Parameters.parameter.value[x]._string.value"/>
              <text value="string"/>
              <type value="string"/>
              <required value="false"/>
              <repeats value="false"/>
            </question>
          </group>
          <group>
            <extension url="http://www.healthintersections.com.au/fhir/Profile/metadata#type">
              <valueString value="uri"/>
            </extension>
            <linkId value="Parameters.parameter.value[x]._uri"/>
            <question>
              <linkId value="Parameters.parameter.value[x]._uri.value"/>
              <text value="uri"/>
              <type value="string"/>
              <required value="false"/>
              <repeats value="false"/>
            </question>
          </group>
          <group>
            <extension url="http://www.healthintersections.com.au/fhir/Profile/metadata#type">
              <valueString value="boolean"/>
            </extension>
            <linkId value="Parameters.parameter.value[x]._boolean"/>
            <question>
              <linkId value="Parameters.parameter.value[x]._boolean.value"/>
              <text value="boolean"/>
              <type value="boolean"/>
              <required value="false"/>
              <repeats value="false"/>
            </question>
          </group>
          <group>
            <extension url="http://www.healthintersections.com.au/fhir/Profile/metadata#type">
              <valueString value="Coding"/>
            </extension>
            <linkId value="Parameters.parameter.value[x]._Coding"/>
            <question>
              <linkId value="Parameters.parameter.value[x]._Coding.value"/>
              <text value="Coding"/>
              <type value="open-choice"/>
              <required value="false"/>
              <repeats value="false"/>
            </question>
          </group>
          <group>
            <extension url="http://www.healthintersections.com.au/fhir/Profile/metadata#type">
              <valueString value="CodeableConcept"/>
            </extension>
            <linkId value="Parameters.parameter.value[x]._CodeableConcept"/>
            <text value="CodeableConcept"/>
            <question>
              <linkId value="Parameters.parameter.value[x]._CodeableConcept.coding"/>
              <text value="code:"/>
              <type value="open-choice"/>
              <required value="false"/>
              <repeats value="false"/>
            </question>
            <question>
              <linkId value="Parameters.parameter.value[x]._CodeableConcept.text"/>
              <text value="text:"/>
              <type value="string"/>
              <required value="false"/>
              <repeats value="false"/>
            </question>
          </group>
          <group>
            <extension url="http://www.healthintersections.com.au/fhir/Profile/metadata#type">
              <valueString value="Attachment"/>
            </extension>
            <linkId value="Parameters.parameter.value[x]._Attachment"/>
            <text value="Attachment"/>
          </group>
          <group>
            <extension url="http://www.healthintersections.com.au/fhir/Profile/metadata#type">
              <valueString value="Identifier"/>
            </extension>
            <linkId value="Parameters.parameter.value[x]._Identifier"/>
            <text value="Identifier"/>
            <question>
              <linkId value="Parameters.parameter.value[x]._Identifier.label"/>
              <text value="label:"/>
              <type value="string"/>
              <required value="false"/>
              <repeats value="false"/>
            </question>
            <question>
              <linkId value="Parameters.parameter.value[x]._Identifier.system"/>
              <text value="system:"/>
              <type value="string"/>
              <required value="false"/>
              <repeats value="false"/>
            </question>
            <question>
              <linkId value="Parameters.parameter.value[x]._Identifier.value"/>
              <text value="value:"/>
              <type value="string"/>
              <required value="false"/>
              <repeats value="false"/>
            </question>
          </group>
          <group>
            <extension url="http://www.healthintersections.com.au/fhir/Profile/metadata#type">
              <valueString value="Quantity"/>
            </extension>
            <linkId value="Parameters.parameter.value[x]._Quantity"/>
            <text value="Quantity"/>
            <question>
              <linkId value="Parameters.parameter.value[x]._Quantity.comparator"/>
              <text value="comp:"/>
              <type value="choice"/>
              <required value="false"/>
              <repeats value="false"/>
            </question>
            <question>
              <linkId value="Parameters.parameter.value[x]._Quantity.value"/>
              <text value="value:"/>
              <type value="decimal"/>
              <required value="false"/>
              <repeats value="false"/>
            </question>
            <question>
              <linkId value="Parameters.parameter.value[x]._Quantity.units"/>
              <text value="units:"/>
              <type value="string"/>
              <required value="false"/>
              <repeats value="false"/>
            </question>
            <question>
              <linkId value="Parameters.parameter.value[x]._Quantity.code"/>
              <text value="coded units:"/>
              <type value="string"/>
              <required value="false"/>
              <repeats value="false"/>
            </question>
            <question>
              <linkId value="Parameters.parameter.value[x]._Quantity.system"/>
              <text value="units system:"/>
              <type value="string"/>
              <required value="false"/>
              <repeats value="false"/>
            </question>
          </group>
          <group>
            <extension url="http://www.healthintersections.com.au/fhir/Profile/metadata#type">
              <valueString value="Range"/>
            </extension>
            <linkId value="Parameters.parameter.value[x]._Range"/>
            <text value="Range"/>
            <question>
              <linkId value="Parameters.parameter.value[x]._Range.low"/>
              <text value="low:"/>
              <type value="decimal"/>
              <required value="false"/>
              <repeats value="false"/>
            </question>
            <question>
              <linkId value="Parameters.parameter.value[x]._Range.high"/>
              <text value="high:"/>
              <type value="decimal"/>
              <required value="false"/>
              <repeats value="false"/>
            </question>
            <question>
              <linkId value="Parameters.parameter.value[x]._Range.units"/>
              <text value="units:"/>
              <type value="string"/>
              <required value="false"/>
              <repeats value="false"/>
            </question>
          </group>
          <group>
            <extension url="http://www.healthintersections.com.au/fhir/Profile/metadata#type">
              <valueString value="Period"/>
            </extension>
            <linkId value="Parameters.parameter.value[x]._Period"/>
            <text value="Period"/>
            <question>
              <linkId value="Parameters.parameter.value[x]._Period.low"/>
              <text value="start:"/>
              <type value="dateTime"/>
              <required value="false"/>
              <repeats value="false"/>
            </question>
            <question>
              <linkId value="Parameters.parameter.value[x]._Period.end"/>
              <text value="end:"/>
              <type value="dateTime"/>
              <required value="false"/>
              <repeats value="false"/>
            </question>
          </group>
          <group>
            <extension url="http://www.healthintersections.com.au/fhir/Profile/metadata#type">
              <valueString value="Ratio"/>
            </extension>
            <linkId value="Parameters.parameter.value[x]._Ratio"/>
            <text value="Ratio"/>
            <question>
              <linkId value="Parameters.parameter.value[x]._Ratio.numerator"/>
              <text value="numerator:"/>
              <type value="decimal"/>
              <required value="false"/>
              <repeats value="false"/>
            </question>
            <question>
              <linkId value="Parameters.parameter.value[x]._Ratio.denominator"/>
              <text value="denominator:"/>
              <type value="decimal"/>
              <required value="false"/>
              <repeats value="false"/>
            </question>
            <question>
              <linkId value="Parameters.parameter.value[x]._Ratio.units"/>
              <text value="units:"/>
              <type value="string"/>
              <required value="false"/>
              <repeats value="false"/>
            </question>
          </group>
          <group>
            <extension url="http://www.healthintersections.com.au/fhir/Profile/metadata#type">
              <valueString value="Name"/>
            </extension>
            <linkId value="Parameters.parameter.value[x]._HumanName"/>
            <text value="HumanName"/>
            <question>
              <linkId value="Parameters.parameter.value[x]._HumanName.text"/>
              <text value="text:"/>
              <type value="string"/>
              <required value="false"/>
              <repeats value="false"/>
            </question>
            <question>
              <linkId value="Parameters.parameter.value[x]._HumanName.family"/>
              <text value="family:"/>
              <type value="string"/>
              <required value="false"/>
              <repeats value="true"/>
            </question>
            <question>
              <linkId value="Parameters.parameter.value[x]._HumanName.given"/>
              <text value="given:"/>
              <type value="string"/>
              <required value="false"/>
              <repeats value="true"/>
            </question>
          </group>
          <group>
            <extension url="http://www.healthintersections.com.au/fhir/Profile/metadata#type">
              <valueString value="Address"/>
            </extension>
            <linkId value="Parameters.parameter.value[x]._Address"/>
            <text value="Address"/>
            <question>
              <linkId value="Parameters.parameter.value[x]._Address.text"/>
              <text value="text:"/>
              <type value="string"/>
              <required value="false"/>
              <repeats value="false"/>
            </question>
            <question>
              <linkId value="Parameters.parameter.value[x]._Address.line"/>
              <text value="line:"/>
              <type value="string"/>
              <required value="false"/>
              <repeats value="true"/>
            </question>
            <question>
              <linkId value="Parameters.parameter.value[x]._Address.city"/>
              <text value="city:"/>
              <type value="string"/>
              <required value="false"/>
              <repeats value="false"/>
            </question>
            <question>
              <linkId value="Parameters.parameter.value[x]._Address.state"/>
              <text value="state:"/>
              <type value="string"/>
              <required value="false"/>
              <repeats value="false"/>
            </question>
            <question>
              <linkId value="Parameters.parameter.value[x]._Address.postalCode"/>
              <text value="post code:"/>
              <type value="string"/>
              <required value="false"/>
              <repeats value="false"/>
            </question>
            <question>
              <linkId value="Parameters.parameter.value[x]._Address.country"/>
              <text value="country:"/>
              <type value="string"/>
              <required value="false"/>
              <repeats value="false"/>
            </question>
            <question>
              <linkId value="Parameters.parameter.value[x]._Address.use"/>
              <text value="use:"/>
              <type value="choice"/>
              <required value="false"/>
              <repeats value="false"/>
            </question>
          </group>
          <group>
            <extension url="http://www.healthintersections.com.au/fhir/Profile/metadata#type">
              <valueString value="ContactPoint"/>
            </extension>
            <linkId value="Parameters.parameter.value[x]._ContactPoint"/>
            <text value="ContactPoint"/>
            <question>
              <linkId value="Parameters.parameter.value[x]._ContactPoint.system"/>
              <text value="type:"/>
              <type value="choice"/>
              <required value="false"/>
              <repeats value="false"/>
            </question>
            <question>
              <linkId value="Parameters.parameter.value[x]._ContactPoint.value"/>
              <text value="value:"/>
              <type value="string"/>
              <required value="false"/>
              <repeats value="false"/>
            </question>
            <question>
              <linkId value="Parameters.parameter.value[x]._ContactPoint.use"/>
              <text value="use:"/>
              <type value="choice"/>
              <required value="false"/>
              <repeats value="false"/>
            </question>
          </group>
          <group>
            <extension url="http://www.healthintersections.com.au/fhir/Profile/metadata#type">
              <valueString value="Schedule"/>
            </extension>
            <linkId value="Parameters.parameter.value[x]._Timing"/>
            <text value="Timing"/>
          </group>
          <group>
            <extension url="http://www.healthintersections.com.au/fhir/Profile/metadata#type">
              <valueString value="Reference"/>
            </extension>
            <linkId value="Parameters.parameter.value[x]._Reference"/>
            <question>
              <extension url="http://www.healthintersections.com.au/fhir/Profile/metadata#reference">
                <valueString value="/_search?subject=$subj&amp;patient=$subj&amp;encounter=$encounter"/>
              </extension>
              <linkId value="Parameters.parameter.value[x]._Reference.value"/>
              <text value="Reference"/>
              <type value="reference"/>
              <required value="false"/>
              <repeats value="false"/>
            </question>
          </group>
        </question>
      </group>
      <group>
        <extension url="http://hl7.org/fhir/Profile/questionnaire-extensions#flyover">
          <valueString value="If the parameter is a whole resource."/>
        </extension>
        <linkId value="Parameters.parameter.resource"/>
        <text value="If parameter is a whole resource"/>
        <required value="false"/>
        <repeats value="true"/>
      </group>
      <group>
        <extension url="http://hl7.org/fhir/Profile/questionnaire-extensions#flyover">
          <valueString value="A named part of a parameter. In many implementation context, a set of named parts is known as a &quot;Tuple&quot;."/>
        </extension>
        <linkId value="Parameters.parameter.part"/>
        <title value="Named part of a parameter (e.g. Tuple)"/>
        <text value="Only one level of tuples is allowed."/>
        <required value="false"/>
        <repeats value="true"/>
        <group>
          <extension url="http://hl7.org/fhir/Profile/questionnaire-extensions#flyover">
            <valueString value="unique id for the element within a resource (for internal references)."/>
          </extension>
          <extension url="http://www.healthintersections.com.au/fhir/Profile/metadata#type">
            <valueString value="string"/>
          </extension>
          <linkId value="Parameters.parameter.part.id"/>
          <required value="false"/>
          <repeats value="true"/>
          <question>
            <linkId value="Parameters.parameter.part.id.value"/>
            <text value="xml:id (or equivalent in JSON)"/>
            <type value="string"/>
            <required value="false"/>
            <repeats value="false"/>
          </question>
        </group>
        <group>
          <extension url="http://hl7.org/fhir/Profile/questionnaire-extensions#flyover">
            <valueString value="The name of the parameter (reference to the operation definition)."/>
          </extension>
          <extension url="http://www.healthintersections.com.au/fhir/Profile/metadata#type">
            <valueString value="string"/>
          </extension>
          <linkId value="Parameters.parameter.part.name"/>
          <required value="true"/>
          <repeats value="true"/>
          <question>
            <linkId value="Parameters.parameter.part.name.value"/>
            <text value="Name from the definition"/>
            <type value="string"/>
            <required value="false"/>
            <repeats value="false"/>
          </question>
        </group>
        <group>
          <extension url="http://hl7.org/fhir/Profile/questionnaire-extensions#flyover">
            <valueString value="The value of the parameter. If there is no value, simply omit the parameter."/>
          </extension>
          <linkId value="Parameters.parameter.part.value[x]"/>
          <text value="Value of the part"/>
          <required value="false"/>
          <repeats value="true"/>
          <question>
            <linkId value="Parameters.parameter.part.value[x]._type"/>
            <text value="type"/>
            <type value="choice"/>
            <required value="false"/>
            <repeats value="false"/>
            <options>
              <reference value="#vs3"/>
            </options>
            <group>
              <extension url="http://www.healthintersections.com.au/fhir/Profile/metadata#type">
                <valueString value="integer"/>
              </extension>
              <linkId value="Parameters.parameter.part.value[x]._integer"/>
              <question>
                <linkId value="Parameters.parameter.part.value[x]._integer.value"/>
                <text value="integer"/>
                <type value="integer"/>
                <required value="false"/>
                <repeats value="false"/>
              </question>
            </group>
            <group>
              <extension url="http://www.healthintersections.com.au/fhir/Profile/metadata#type">
                <valueString value="decimal"/>
              </extension>
              <linkId value="Parameters.parameter.part.value[x]._decimal"/>
              <question>
                <linkId value="Parameters.parameter.part.value[x]._decimal.value"/>
                <text value="decimal"/>
                <type value="decimal"/>
                <required value="false"/>
                <repeats value="false"/>
              </question>
            </group>
            <group>
              <extension url="http://www.healthintersections.com.au/fhir/Profile/metadata#type">
                <valueString value="datetime"/>
              </extension>
              <linkId value="Parameters.parameter.part.value[x]._dateTime"/>
              <question>
                <linkId value="Parameters.parameter.part.value[x]._dateTime.value"/>
                <text value="dateTime"/>
                <type value="dateTime"/>
                <required value="false"/>
                <repeats value="false"/>
              </question>
            </group>
            <group>
              <extension url="http://www.healthintersections.com.au/fhir/Profile/metadata#type">
                <valueString value="datetime"/>
              </extension>
              <linkId value="Parameters.parameter.part.value[x]._date"/>
              <question>
                <linkId value="Parameters.parameter.part.value[x]._date.value"/>
                <text value="date"/>
                <type value="dateTime"/>
                <required value="false"/>
                <repeats value="false"/>
              </question>
            </group>
            <group>
              <extension url="http://www.healthintersections.com.au/fhir/Profile/metadata#type">
                <valueString value="instant"/>
              </extension>
              <linkId value="Parameters.parameter.part.value[x]._instant"/>
              <question>
                <linkId value="Parameters.parameter.part.value[x]._instant.value"/>
                <text value="instant"/>
                <type value="instant"/>
                <required value="false"/>
                <repeats value="false"/>
              </question>
            </group>
            <group>
              <extension url="http://www.healthintersections.com.au/fhir/Profile/metadata#type">
                <valueString value="time"/>
              </extension>
              <linkId value="Parameters.parameter.part.value[x]._time"/>
              <question>
                <linkId value="Parameters.parameter.part.value[x]._time.value"/>
                <text value="time"/>
                <type value="time"/>
                <required value="false"/>
                <repeats value="false"/>
              </question>
            </group>
            <group>
              <extension url="http://www.healthintersections.com.au/fhir/Profile/metadata#type">
                <valueString value="string"/>
              </extension>
              <linkId value="Parameters.parameter.part.value[x]._string"/>
              <question>
                <linkId value="Parameters.parameter.part.value[x]._string.value"/>
                <text value="string"/>
                <type value="string"/>
                <required value="false"/>
                <repeats value="false"/>
              </question>
            </group>
            <group>
              <extension url="http://www.healthintersections.com.au/fhir/Profile/metadata#type">
                <valueString value="uri"/>
              </extension>
              <linkId value="Parameters.parameter.part.value[x]._uri"/>
              <question>
                <linkId value="Parameters.parameter.part.value[x]._uri.value"/>
                <text value="uri"/>
                <type value="string"/>
                <required value="false"/>
                <repeats value="false"/>
              </question>
            </group>
            <group>
              <extension url="http://www.healthintersections.com.au/fhir/Profile/metadata#type">
                <valueString value="boolean"/>
              </extension>
              <linkId value="Parameters.parameter.part.value[x]._boolean"/>
              <question>
                <linkId value="Parameters.parameter.part.value[x]._boolean.value"/>
                <text value="boolean"/>
                <type value="boolean"/>
                <required value="false"/>
                <repeats value="false"/>
              </question>
            </group>
            <group>
              <extension url="http://www.healthintersections.com.au/fhir/Profile/metadata#type">
                <valueString value="Coding"/>
              </extension>
              <linkId value="Parameters.parameter.part.value[x]._Coding"/>
              <question>
                <linkId value="Parameters.parameter.part.value[x]._Coding.value"/>
                <text value="Coding"/>
                <type value="open-choice"/>
                <required value="false"/>
                <repeats value="false"/>
              </question>
            </group>
            <group>
              <extension url="http://www.healthintersections.com.au/fhir/Profile/metadata#type">
                <valueString value="CodeableConcept"/>
              </extension>
              <linkId value="Parameters.parameter.part.value[x]._CodeableConcept"/>
              <text value="CodeableConcept"/>
              <question>
                <linkId value="Parameters.parameter.part.value[x]._CodeableConcept.coding"/>
                <text value="code:"/>
                <type value="open-choice"/>
                <required value="false"/>
                <repeats value="false"/>
              </question>
              <question>
                <linkId value="Parameters.parameter.part.value[x]._CodeableConcept.text"/>
                <text value="text:"/>
                <type value="string"/>
                <required value="false"/>
                <repeats value="false"/>
              </question>
            </group>
            <group>
              <extension url="http://www.healthintersections.com.au/fhir/Profile/metadata#type">
                <valueString value="Attachment"/>
              </extension>
              <linkId value="Parameters.parameter.part.value[x]._Attachment"/>
              <text value="Attachment"/>
            </group>
            <group>
              <extension url="http://www.healthintersections.com.au/fhir/Profile/metadata#type">
                <valueString value="Identifier"/>
              </extension>
              <linkId value="Parameters.parameter.part.value[x]._Identifier"/>
              <text value="Identifier"/>
              <question>
                <linkId value="Parameters.parameter.part.value[x]._Identifier.label"/>
                <text value="label:"/>
                <type value="string"/>
                <required value="false"/>
                <repeats value="false"/>
              </question>
              <question>
                <linkId value="Parameters.parameter.part.value[x]._Identifier.system"/>
                <text value="system:"/>
                <type value="string"/>
                <required value="false"/>
                <repeats value="false"/>
              </question>
              <question>
                <linkId value="Parameters.parameter.part.value[x]._Identifier.value"/>
                <text value="value:"/>
                <type value="string"/>
                <required value="false"/>
                <repeats value="false"/>
              </question>
            </group>
            <group>
              <extension url="http://www.healthintersections.com.au/fhir/Profile/metadata#type">
                <valueString value="Quantity"/>
              </extension>
              <linkId value="Parameters.parameter.part.value[x]._Quantity"/>
              <text value="Quantity"/>
              <question>
                <linkId value="Parameters.parameter.part.value[x]._Quantity.comparator"/>
                <text value="comp:"/>
                <type value="choice"/>
                <required value="false"/>
                <repeats value="false"/>
              </question>
              <question>
                <linkId value="Parameters.parameter.part.value[x]._Quantity.value"/>
                <text value="value:"/>
                <type value="decimal"/>
                <required value="false"/>
                <repeats value="false"/>
              </question>
              <question>
                <linkId value="Parameters.parameter.part.value[x]._Quantity.units"/>
                <text value="units:"/>
                <type value="string"/>
                <required value="false"/>
                <repeats value="false"/>
              </question>
              <question>
                <linkId value="Parameters.parameter.part.value[x]._Quantity.code"/>
                <text value="coded units:"/>
                <type value="string"/>
                <required value="false"/>
                <repeats value="false"/>
              </question>
              <question>
                <linkId value="Parameters.parameter.part.value[x]._Quantity.system"/>
                <text value="units system:"/>
                <type value="string"/>
                <required value="false"/>
                <repeats value="false"/>
              </question>
            </group>
            <group>
              <extension url="http://www.healthintersections.com.au/fhir/Profile/metadata#type">
                <valueString value="Range"/>
              </extension>
              <linkId value="Parameters.parameter.part.value[x]._Range"/>
              <text value="Range"/>
              <question>
                <linkId value="Parameters.parameter.part.value[x]._Range.low"/>
                <text value="low:"/>
                <type value="decimal"/>
                <required value="false"/>
                <repeats value="false"/>
              </question>
              <question>
                <linkId value="Parameters.parameter.part.value[x]._Range.high"/>
                <text value="high:"/>
                <type value="decimal"/>
                <required value="false"/>
                <repeats value="false"/>
              </question>
              <question>
                <linkId value="Parameters.parameter.part.value[x]._Range.units"/>
                <text value="units:"/>
                <type value="string"/>
                <required value="false"/>
                <repeats value="false"/>
              </question>
            </group>
            <group>
              <extension url="http://www.healthintersections.com.au/fhir/Profile/metadata#type">
                <valueString value="Period"/>
              </extension>
              <linkId value="Parameters.parameter.part.value[x]._Period"/>
              <text value="Period"/>
              <question>
                <linkId value="Parameters.parameter.part.value[x]._Period.low"/>
                <text value="start:"/>
                <type value="dateTime"/>
                <required value="false"/>
                <repeats value="false"/>
              </question>
              <question>
                <linkId value="Parameters.parameter.part.value[x]._Period.end"/>
                <text value="end:"/>
                <type value="dateTime"/>
                <required value="false"/>
                <repeats value="false"/>
              </question>
            </group>
            <group>
              <extension url="http://www.healthintersections.com.au/fhir/Profile/metadata#type">
                <valueString value="Ratio"/>
              </extension>
              <linkId value="Parameters.parameter.part.value[x]._Ratio"/>
              <text value="Ratio"/>
              <question>
                <linkId value="Parameters.parameter.part.value[x]._Ratio.numerator"/>
                <text value="numerator:"/>
                <type value="decimal"/>
                <required value="false"/>
                <repeats value="false"/>
              </question>
              <question>
                <linkId value="Parameters.parameter.part.value[x]._Ratio.denominator"/>
                <text value="denominator:"/>
                <type value="decimal"/>
                <required value="false"/>
                <repeats value="false"/>
              </question>
              <question>
                <linkId value="Parameters.parameter.part.value[x]._Ratio.units"/>
                <text value="units:"/>
                <type value="string"/>
                <required value="false"/>
                <repeats value="false"/>
              </question>
            </group>
            <group>
              <extension url="http://www.healthintersections.com.au/fhir/Profile/metadata#type">
                <valueString value="Name"/>
              </extension>
              <linkId value="Parameters.parameter.part.value[x]._HumanName"/>
              <text value="HumanName"/>
              <question>
                <linkId value="Parameters.parameter.part.value[x]._HumanName.text"/>
                <text value="text:"/>
                <type value="string"/>
                <required value="false"/>
                <repeats value="false"/>
              </question>
              <question>
                <linkId value="Parameters.parameter.part.value[x]._HumanName.family"/>
                <text value="family:"/>
                <type value="string"/>
                <required value="false"/>
                <repeats value="true"/>
              </question>
              <question>
                <linkId value="Parameters.parameter.part.value[x]._HumanName.given"/>
                <text value="given:"/>
                <type value="string"/>
                <required value="false"/>
                <repeats value="true"/>
              </question>
            </group>
            <group>
              <extension url="http://www.healthintersections.com.au/fhir/Profile/metadata#type">
                <valueString value="Address"/>
              </extension>
              <linkId value="Parameters.parameter.part.value[x]._Address"/>
              <text value="Address"/>
              <question>
                <linkId value="Parameters.parameter.part.value[x]._Address.text"/>
                <text value="text:"/>
                <type value="string"/>
                <required value="false"/>
                <repeats value="false"/>
              </question>
              <question>
                <linkId value="Parameters.parameter.part.value[x]._Address.line"/>
                <text value="line:"/>
                <type value="string"/>
                <required value="false"/>
                <repeats value="true"/>
              </question>
              <question>
                <linkId value="Parameters.parameter.part.value[x]._Address.city"/>
                <text value="city:"/>
                <type value="string"/>
                <required value="false"/>
                <repeats value="false"/>
              </question>
              <question>
                <linkId value="Parameters.parameter.part.value[x]._Address.state"/>
                <text value="state:"/>
                <type value="string"/>
                <required value="false"/>
                <repeats value="false"/>
              </question>
              <question>
                <linkId value="Parameters.parameter.part.value[x]._Address.postalCode"/>
                <text value="post code:"/>
                <type value="string"/>
                <required value="false"/>
                <repeats value="false"/>
              </question>
              <question>
                <linkId value="Parameters.parameter.part.value[x]._Address.country"/>
                <text value="country:"/>
                <type value="string"/>
                <required value="false"/>
                <repeats value="false"/>
              </question>
              <question>
                <linkId value="Parameters.parameter.part.value[x]._Address.use"/>
                <text value="use:"/>
                <type value="choice"/>
                <required value="false"/>
                <repeats value="false"/>
              </question>
            </group>
            <group>
              <extension url="http://www.healthintersections.com.au/fhir/Profile/metadata#type">
                <valueString value="ContactPoint"/>
              </extension>
              <linkId value="Parameters.parameter.part.value[x]._ContactPoint"/>
              <text value="ContactPoint"/>
              <question>
                <linkId value="Parameters.parameter.part.value[x]._ContactPoint.system"/>
                <text value="type:"/>
                <type value="choice"/>
                <required value="false"/>
                <repeats value="false"/>
              </question>
              <question>
                <linkId value="Parameters.parameter.part.value[x]._ContactPoint.value"/>
                <text value="value:"/>
                <type value="string"/>
                <required value="false"/>
                <repeats value="false"/>
              </question>
              <question>
                <linkId value="Parameters.parameter.part.value[x]._ContactPoint.use"/>
                <text value="use:"/>
                <type value="choice"/>
                <required value="false"/>
                <repeats value="false"/>
              </question>
            </group>
            <group>
              <extension url="http://www.healthintersections.com.au/fhir/Profile/metadata#type">
                <valueString value="Schedule"/>
              </extension>
              <linkId value="Parameters.parameter.part.value[x]._Timing"/>
              <text value="Timing"/>
            </group>
            <group>
              <extension url="http://www.healthintersections.com.au/fhir/Profile/metadata#type">
                <valueString value="Reference"/>
              </extension>
              <linkId value="Parameters.parameter.part.value[x]._Reference"/>
              <question>
                <extension url="http://www.healthintersections.com.au/fhir/Profile/metadata#reference">
                  <valueString value="/_search?subject=$subj&amp;patient=$subj&amp;encounter=$encounter"/>
                </extension>
                <linkId value="Parameters.parameter.part.value[x]._Reference.value"/>
                <text value="Reference"/>
                <type value="reference"/>
                <required value="false"/>
                <repeats value="false"/>
              </question>
            </group>
          </question>
        </group>
        <group>
          <extension url="http://hl7.org/fhir/Profile/questionnaire-extensions#flyover">
            <valueString value="If the parameter is a whole resource."/>
          </extension>
          <linkId value="Parameters.parameter.part.resource"/>
          <text value="If part is a whole resource"/>
          <required value="false"/>
          <repeats value="true"/>
        </group>
      </group>
    </group>
  </group>
</Questionnaire>