<?xml version="1.0" encoding="UTF-8"?>

<Questionnaire xmlns="http://hl7.org/fhir">
  <id value="qs1"/>
  <contained>
    <ValueSet>
      <id value="vs2"/>
      <url value="urn:uuid:532e267b-17c7-45f4-b238-08417ce4bbdf"/>
      <name value="Type options for SupportingDocumentation.target"/>
      <description value="Type options for SupportingDocumentation.target"/>
      <status value="active"/>
      <expansion>
        <identifier value="urn:uuid:06337d0d-cbd3-4759-8817-c039823f0bcf"/>
        <timestamp value="2015-03-24T00:04:32+00:00"/>
        <contains>
          <system value="http://hl7.org/fhir/resource-types"/>
          <code value="Organization"/>
          <display value="Organization"/>
        </contains>
        <contains>
          <system value="http://hl7.org/fhir/resource-types"/>
          <code value="Practitioner"/>
          <display value="Practitioner"/>
        </contains>
      </expansion>
    </ValueSet>
  </contained>
  <contained>
    <ValueSet>
      <id value="vs3"/>
      <url value="urn:uuid:33f29349-ab71-4e68-9ac8-dcf447e7cf28"/>
      <name value="Type options for SupportingDocumentation.detail.content[x]"/>
      <description value="Type options for SupportingDocumentation.detail.content[x]"/>
      <status value="active"/>
      <expansion>
        <identifier value="urn:uuid:59c73a90-a7f5-4def-9b80-8da92be534d4"/>
        <timestamp value="2015-03-24T00:04:32+00:00"/>
        <contains>
          <system value="http://hl7.org/fhir/resource-types"/>
          <code value="Resource"/>
          <display value="Resource"/>
        </contains>
        <contains>
          <system value="http://hl7.org/fhir/data-types"/>
          <code value="Attachment"/>
          <display value="Attachment"/>
        </contains>
      </expansion>
    </ValueSet>
  </contained>
  <identifier>
    <system value="urn:ietf:rfc:3986"/>
  </identifier>
  <status value="draft"/>
  <date value="2015-03-23T23:56:59+00:00"/>
  <publisher value="HL7 FHIR Project (Financial Management)"/>
  <group>
    <extension url="http://hl7.org/fhir/Profile/questionnaire-extensions#flyover">
      <valueString value="This resource provides the supporting information for a process, for example clinical or financial  information related to a claim or pre-authorization."/>
    </extension>
    <linkId value="SupportingDocumentation"/>
    <title value="Documentation submission"/>
    <required value="true"/>
    <repeats value="false"/>
    <group>
      <extension url="http://hl7.org/fhir/Profile/questionnaire-extensions#flyover">
        <valueString value="The logical id of the resource, as used in the url for the resoure. Once assigned, this value never changes. The only time that a resource does not have an id is when it is being submitted to the server using a create operation. Bundles always have an id, though it is usually a generated UUID."/>
      </extension>
      <extension url="http://www.healthintersections.com.au/fhir/Profile/metadata#type">
        <valueString value="string"/>
      </extension>
      <linkId value="SupportingDocumentation.id"/>
      <required value="false"/>
      <repeats value="true"/>
      <question>
        <linkId value="SupportingDocumentation.id.value"/>
        <text value="Logical id of this artefact"/>
        <type value="string"/>
        <required value="false"/>
        <repeats value="false"/>
      </question>
    </group>
    <group>
      <extension url="http://hl7.org/fhir/Profile/questionnaire-extensions#flyover">
        <valueString value="The metadata about the resource. This is content that is maintained by the infrastructure. Changes to the content may not always be associated with version changes to the resource."/>
      </extension>
      <linkId value="SupportingDocumentation.meta"/>
      <text value="Metadata about the resource"/>
      <required value="false"/>
      <repeats value="true"/>
    </group>
    <group>
      <extension url="http://hl7.org/fhir/Profile/questionnaire-extensions#flyover">
        <valueString value="A reference to a set of rules that were followed when the resource was constructed, and which must be understood when processing the content. Asserting this rule set restricts the content to be only understood by a limited set of trading partners. This inherently limits the usefulness of the data in the long term. However the existing health eco-system is highly fractured, and not yet ready to define, collect, and exchange data in a generally computable sense. Wherever possible, implementers and/or specification writers should avoid using this element as much as possible."/>
      </extension>
      <extension url="http://www.healthintersections.com.au/fhir/Profile/metadata#type">
        <valueString value="uri"/>
      </extension>
      <linkId value="SupportingDocumentation.implicitRules"/>
      <required value="false"/>
      <repeats value="true"/>
      <question>
        <linkId value="SupportingDocumentation.implicitRules.value"/>
        <text value="A set of rules under which this content was created"/>
        <type value="string"/>
        <required value="false"/>
        <repeats value="false"/>
      </question>
    </group>
    <group>
      <extension url="http://hl7.org/fhir/Profile/questionnaire-extensions#flyover">
        <valueString value="The base language in which the resource is written. Language is provided to support indexing and accessibility (typically, services such as text to speech use the language tag). The html language tag in the narrative applies  to the narrative. The language tag on the resource may be used to specify the language of other presentations generated from the data in the resource

Not all the content has to be in the base language. The Resource.language should not be assumed to apply to the narrative automatically. If a language is specified, it should it also be specified on the div element in the html (see rules in HTML5 for information about the relationship between xml:lang and the html lang attribute)."/>
      </extension>
      <extension url="http://www.healthintersections.com.au/fhir/Profile/metadata#type">
        <valueString value="code"/>
      </extension>
      <linkId value="SupportingDocumentation.language"/>
      <required value="false"/>
      <repeats value="true"/>
      <question>
        <linkId value="SupportingDocumentation.language.value"/>
        <text value="language"/>
        <type value="choice"/>
        <required value="false"/>
        <repeats value="false"/>
      </question>
    </group>
    <group>
      <extension url="http://hl7.org/fhir/Profile/questionnaire-extensions#flyover">
        <valueString value="A human-readable narrative that contains a summary of the resource, and may be used to represent the content of the resource to a human. The narrative need not encode all the structured data, but is required to contain sufficient detail to make it &quot;clinically safe&quot; for a human to just read the narrative. Resource definitions may define what content should be represented in the narrative to ensure clinical safety. Contained resources do not have narrative. Resources that are not contained SHOULD have a narrative."/>
      </extension>
      <linkId value="SupportingDocumentation.text"/>
      <text value="Text summary of the resource, for human interpretation"/>
      <required value="false"/>
      <repeats value="true"/>
    </group>
    <group>
      <extension url="http://hl7.org/fhir/Profile/questionnaire-extensions#flyover">
        <valueString value="These resources do not have an independent existence apart from the resource that contains them - they cannot be identified independently, and nor can they have their own independent transaction scope. This should never be done when the content can be identified properly, as once identification is lost, it is extremely difficult (and context dependent) to restore it again."/>
      </extension>
      <linkId value="SupportingDocumentation.contained"/>
      <text value="Contained, inline Resources"/>
      <required value="false"/>
      <repeats value="true"/>
    </group>
    <group>
      <extension url="http://hl7.org/fhir/Profile/questionnaire-extensions#flyover">
        <valueString value="The Response Business Identifier."/>
      </extension>
      <extension url="http://www.healthintersections.com.au/fhir/Profile/metadata#type">
        <valueString value="Identifier"/>
      </extension>
      <linkId value="SupportingDocumentation.identifier"/>
      <text value="Business Identifier"/>
      <required value="true"/>
      <repeats value="true"/>
      <question>
        <linkId value="SupportingDocumentation.identifier.label"/>
        <text value="label:"/>
        <type value="string"/>
        <required value="false"/>
        <repeats value="false"/>
      </question>
      <question>
        <linkId value="SupportingDocumentation.identifier.system"/>
        <text value="system:"/>
        <type value="string"/>
        <required value="false"/>
        <repeats value="false"/>
      </question>
      <question>
        <linkId value="SupportingDocumentation.identifier.value"/>
        <text value="value:"/>
        <type value="string"/>
        <required value="false"/>
        <repeats value="false"/>
      </question>
    </group>
    <group>
      <extension url="http://hl7.org/fhir/Profile/questionnaire-extensions#flyover">
        <valueString value="The version of the style of resource contents. This should be mapped to the allowable profiles for this and supporting resources."/>
      </extension>
      <extension url="http://www.healthintersections.com.au/fhir/Profile/metadata#type">
        <valueString value="Coding"/>
      </extension>
      <linkId value="SupportingDocumentation.ruleset"/>
      <required value="false"/>
      <repeats value="true"/>
      <question>
        <linkId value="SupportingDocumentation.ruleset.value"/>
        <text value="Resource version"/>
        <type value="open-choice"/>
        <required value="false"/>
        <repeats value="false"/>
      </question>
    </group>
    <group>
      <extension url="http://hl7.org/fhir/Profile/questionnaire-extensions#flyover">
        <valueString value="The style (standard) and version of the original material which was converted into this resource."/>
      </extension>
      <extension url="http://www.healthintersections.com.au/fhir/Profile/metadata#type">
        <valueString value="Coding"/>
      </extension>
      <linkId value="SupportingDocumentation.originalRuleset"/>
      <required value="false"/>
      <repeats value="true"/>
      <question>
        <linkId value="SupportingDocumentation.originalRuleset.value"/>
        <text value="Original version"/>
        <type value="open-choice"/>
        <required value="false"/>
        <repeats value="false"/>
      </question>
    </group>
    <group>
      <extension url="http://hl7.org/fhir/Profile/questionnaire-extensions#flyover">
        <valueString value="The date when this resource was created."/>
      </extension>
      <extension url="http://www.healthintersections.com.au/fhir/Profile/metadata#type">
        <valueString value="datetime"/>
      </extension>
      <linkId value="SupportingDocumentation.created"/>
      <required value="false"/>
      <repeats value="true"/>
      <question>
        <linkId value="SupportingDocumentation.created.value"/>
        <text value="Creation date"/>
        <type value="dateTime"/>
        <required value="false"/>
        <repeats value="false"/>
      </question>
    </group>
    <group>
      <extension url="http://hl7.org/fhir/Profile/questionnaire-extensions#flyover">
        <valueString value="The Insurer, organization or Provider who is target  of the submission."/>
      </extension>
      <linkId value="SupportingDocumentation.target"/>
      <text value="Insurer or Provider"/>
      <required value="false"/>
      <repeats value="true"/>
      <question>
        <linkId value="SupportingDocumentation.target._type"/>
        <text value="type"/>
        <type value="choice"/>
        <required value="false"/>
        <repeats value="false"/>
        <options>
          <reference value="#vs2"/>
        </options>
        <group>
          <extension url="http://www.healthintersections.com.au/fhir/Profile/metadata#type">
            <valueString value="Reference"/>
          </extension>
          <linkId value="SupportingDocumentation.target._Organization"/>
          <question>
            <extension url="http://www.healthintersections.com.au/fhir/Profile/metadata#reference">
              <valueString value="/Organization?subject=$subj&amp;patient=$subj&amp;encounter=$encounter"/>
            </extension>
            <linkId value="SupportingDocumentation.target._Organization.value"/>
            <text value="Organization"/>
            <type value="reference"/>
            <required value="false"/>
            <repeats value="false"/>
          </question>
        </group>
        <group>
          <extension url="http://www.healthintersections.com.au/fhir/Profile/metadata#type">
            <valueString value="Reference"/>
          </extension>
          <linkId value="SupportingDocumentation.target._Practitioner"/>
          <question>
            <extension url="http://www.healthintersections.com.au/fhir/Profile/metadata#reference">
              <valueString value="/Practitioner?subject=$subj&amp;patient=$subj&amp;encounter=$encounter"/>
            </extension>
            <linkId value="SupportingDocumentation.target._Practitioner.value"/>
            <text value="Practitioner"/>
            <type value="reference"/>
            <required value="false"/>
            <repeats value="false"/>
          </question>
        </group>
      </question>
    </group>
    <group>
      <extension url="http://hl7.org/fhir/Profile/questionnaire-extensions#flyover">
        <valueString value="The practitioner who is responsible for the services rendered to the patient."/>
      </extension>
      <extension url="http://www.healthintersections.com.au/fhir/Profile/metadata#type">
        <valueString value="Reference"/>
      </extension>
      <linkId value="SupportingDocumentation.provider"/>
      <required value="false"/>
      <repeats value="true"/>
      <question>
        <extension url="http://www.healthintersections.com.au/fhir/Profile/metadata#reference">
          <valueString value="/Practitioner?subject=$subj&amp;patient=$subj&amp;encounter=$encounter"/>
        </extension>
        <linkId value="SupportingDocumentation.provider.value"/>
        <text value="Responsible practitioner"/>
        <type value="reference"/>
        <required value="false"/>
        <repeats value="false"/>
      </question>
    </group>
    <group>
      <extension url="http://hl7.org/fhir/Profile/questionnaire-extensions#flyover">
        <valueString value="The organization which is responsible for the services rendered to the patient."/>
      </extension>
      <extension url="http://www.healthintersections.com.au/fhir/Profile/metadata#type">
        <valueString value="Reference"/>
      </extension>
      <linkId value="SupportingDocumentation.organization"/>
      <required value="false"/>
      <repeats value="true"/>
      <question>
        <extension url="http://www.healthintersections.com.au/fhir/Profile/metadata#reference">
          <valueString value="/Organization?subject=$subj&amp;patient=$subj&amp;encounter=$encounter"/>
        </extension>
        <linkId value="SupportingDocumentation.organization.value"/>
        <text value="Responsible organization"/>
        <type value="reference"/>
        <required value="false"/>
        <repeats value="false"/>
      </question>
    </group>
    <group>
      <extension url="http://hl7.org/fhir/Profile/questionnaire-extensions#flyover">
        <valueString value="Original request. changed name from number to identifier."/>
      </extension>
      <extension url="http://www.healthintersections.com.au/fhir/Profile/metadata#type">
        <valueString value="Reference"/>
      </extension>
      <linkId value="SupportingDocumentation.request"/>
      <required value="false"/>
      <repeats value="true"/>
      <question>
        <extension url="http://www.healthintersections.com.au/fhir/Profile/metadata#reference">
          <valueString value="/Resource?subject=$subj&amp;patient=$subj&amp;encounter=$encounter"/>
        </extension>
        <linkId value="SupportingDocumentation.request.value"/>
        <text value="Request reference"/>
        <type value="reference"/>
        <required value="false"/>
        <repeats value="false"/>
      </question>
    </group>
    <group>
      <extension url="http://hl7.org/fhir/Profile/questionnaire-extensions#flyover">
        <valueString value="Original response. changed name from number to identifier."/>
      </extension>
      <extension url="http://www.healthintersections.com.au/fhir/Profile/metadata#type">
        <valueString value="Reference"/>
      </extension>
      <linkId value="SupportingDocumentation.response"/>
      <required value="false"/>
      <repeats value="true"/>
      <question>
        <extension url="http://www.healthintersections.com.au/fhir/Profile/metadata#reference">
          <valueString value="/Resource?subject=$subj&amp;patient=$subj&amp;encounter=$encounter"/>
        </extension>
        <linkId value="SupportingDocumentation.response.value"/>
        <text value="Response reference"/>
        <type value="reference"/>
        <required value="false"/>
        <repeats value="false"/>
      </question>
    </group>
    <group>
      <extension url="http://hl7.org/fhir/Profile/questionnaire-extensions#flyover">
        <valueString value="Person who created the submission."/>
      </extension>
      <extension url="http://www.healthintersections.com.au/fhir/Profile/metadata#type">
        <valueString value="Reference"/>
      </extension>
      <linkId value="SupportingDocumentation.author"/>
      <required value="false"/>
      <repeats value="true"/>
      <question>
        <extension url="http://www.healthintersections.com.au/fhir/Profile/metadata#reference">
          <valueString value="/Practitioner?subject=$subj&amp;patient=$subj&amp;encounter=$encounter"/>
        </extension>
        <linkId value="SupportingDocumentation.author.value"/>
        <text value="Author"/>
        <type value="reference"/>
        <required value="false"/>
        <repeats value="false"/>
      </question>
    </group>
    <group>
      <extension url="http://hl7.org/fhir/Profile/questionnaire-extensions#flyover">
        <valueString value="The patient who is directly or indirectly the subject of the supporting information."/>
      </extension>
      <extension url="http://www.healthintersections.com.au/fhir/Profile/metadata#type">
        <valueString value="Reference"/>
      </extension>
      <linkId value="SupportingDocumentation.subject"/>
      <required value="false"/>
      <repeats value="true"/>
      <question>
        <extension url="http://www.healthintersections.com.au/fhir/Profile/metadata#reference">
          <valueString value="/Patient?subject=$subj&amp;patient=$subj&amp;encounter=$encounter"/>
        </extension>
        <linkId value="SupportingDocumentation.subject.value"/>
        <text value="Patient"/>
        <type value="reference"/>
        <required value="false"/>
        <repeats value="false"/>
      </question>
    </group>
    <group>
      <extension url="http://hl7.org/fhir/Profile/questionnaire-extensions#flyover">
        <valueString value="Supporting Files."/>
      </extension>
      <linkId value="SupportingDocumentation.detail"/>
      <title value="Supporting Files"/>
      <required value="false"/>
      <repeats value="true"/>
      <group>
        <extension url="http://hl7.org/fhir/Profile/questionnaire-extensions#flyover">
          <valueString value="unique id for the element within a resource (for internal references)."/>
        </extension>
        <extension url="http://www.healthintersections.com.au/fhir/Profile/metadata#type">
          <valueString value="string"/>
        </extension>
        <linkId value="SupportingDocumentation.detail.id"/>
        <required value="false"/>
        <repeats value="true"/>
        <question>
          <linkId value="SupportingDocumentation.detail.id.value"/>
          <text value="xml:id (or equivalent in JSON)"/>
          <type value="string"/>
          <required value="false"/>
          <repeats value="false"/>
        </question>
      </group>
      <group>
        <extension url="http://hl7.org/fhir/Profile/questionnaire-extensions#flyover">
          <valueString value="A link Id for the response to reference."/>
        </extension>
        <extension url="http://www.healthintersections.com.au/fhir/Profile/metadata#type">
          <valueString value="integer"/>
        </extension>
        <linkId value="SupportingDocumentation.detail.linkId"/>
        <required value="true"/>
        <repeats value="true"/>
        <question>
          <linkId value="SupportingDocumentation.detail.linkId.value"/>
          <text value="LinkId"/>
          <type value="integer"/>
          <required value="false"/>
          <repeats value="false"/>
        </question>
      </group>
      <group>
        <extension url="http://hl7.org/fhir/Profile/questionnaire-extensions#flyover">
          <valueString value="The attached content."/>
        </extension>
        <linkId value="SupportingDocumentation.detail.content[x]"/>
        <text value="Content"/>
        <required value="true"/>
        <repeats value="true"/>
        <question>
          <linkId value="SupportingDocumentation.detail.content[x]._type"/>
          <text value="type"/>
          <type value="choice"/>
          <required value="false"/>
          <repeats value="false"/>
          <options>
            <reference value="#vs3"/>
          </options>
          <group>
            <extension url="http://www.healthintersections.com.au/fhir/Profile/metadata#type">
              <valueString value="Reference"/>
            </extension>
            <linkId value="SupportingDocumentation.detail.content[x]._Resource"/>
            <question>
              <extension url="http://www.healthintersections.com.au/fhir/Profile/metadata#reference">
                <valueString value="/Resource?subject=$subj&amp;patient=$subj&amp;encounter=$encounter"/>
              </extension>
              <linkId value="SupportingDocumentation.detail.content[x]._Resource.value"/>
              <text value="Resource"/>
              <type value="reference"/>
              <required value="false"/>
              <repeats value="false"/>
            </question>
          </group>
          <group>
            <extension url="http://www.healthintersections.com.au/fhir/Profile/metadata#type">
              <valueString value="Attachment"/>
            </extension>
            <linkId value="SupportingDocumentation.detail.content[x]._Attachment"/>
            <text value="Attachment"/>
          </group>
        </question>
      </group>
      <group>
        <extension url="http://hl7.org/fhir/Profile/questionnaire-extensions#flyover">
          <valueString value="The date and optionally time when the material was created."/>
        </extension>
        <extension url="http://www.healthintersections.com.au/fhir/Profile/metadata#type">
          <valueString value="datetime"/>
        </extension>
        <linkId value="SupportingDocumentation.detail.dateTime"/>
        <required value="false"/>
        <repeats value="true"/>
        <question>
          <linkId value="SupportingDocumentation.detail.dateTime.value"/>
          <text value="Creation date and time"/>
          <type value="dateTime"/>
          <required value="false"/>
          <repeats value="false"/>
        </question>
      </group>
    </group>
  </group>
</Questionnaire>