<?xml version="1.0" encoding="UTF-8"?>

<CarePlan xmlns="http://hl7.org/fhir">
  <id value="f202"/>
  <text>
    <status value="generated"/>
    <div xmlns="http://www.w3.org/1999/xhtml">
      <p>
        <b>Generated Narrative with Details</b>
      </p>
      <p>
        <b>contained</b>: , , , 
      </p>
      <p>
        <b>patient</b>: 
        <a href="Patient/f201">Roel. Generated Summary: BSN = 123456789 (OFFICIAL), BSN = 123456789 (OFFICIAL); Roel(OFFICIAL); ph: +31612345678(MOBILE), ph: +31201234567(HOME); MALE; birthDate: Mar 13, 1960; 
          <span title="Codes: {http://snomed.info/sct 36629006}, {http://hl7.org/fhir/v3/MaritalStatus M}">Legally married</span>; active
        </a>
      </p>
      <p>
        <b>status</b>: ACTIVE
      </p>
      <p>
        <b>concern</b>: 
        <a href="Condition/f202">Roel&#39;s head-neck tumor. Generated Summary: dateAsserted: Dec 1, 2012; 
          <span title="Codes: {http://snomed.info/sct 363346000}">Malignant neoplastic disease</span>; 
          <span title="Codes: {http://hl7.org/fhir/condition-category diagnose}">diagnose</span>; CONFIRMED; 
          <span title="Codes: {http://snomed.info/sct 24484000}">Severe</span>; 52 years
        </a>
      </p>
      <h3>Participants</h3>
      <table class="grid">
        <tr>
          <td>
            <b>Id</b>
          </td>
          <td>
            <b>Role</b>
          </td>
          <td>
            <b>Member</b>
          </td>
        </tr>
        <tr>
          <td> </td>
          <td>Treated with 
            <span style="background: LightGoldenRodYellow ">(Details : {SNOMED CT code &#39;28995006&#39; = &#39;TW&#39;, given as &#39;Treated with&#39;})</span>
          </td>
          <td>
            <a href="Practitioner/f201">Dokter Bronsig. Generated Summary: UZI-nummer = 12345678901 (OFFICIAL); Dokter Bronsig(OFFICIAL); ph: +31715269111(WORK); MALE; birthDate: Dec 24, 1956</a>
          </td>
        </tr>
      </table>
      <h3>Goals</h3>
      <table class="grid">
        <tr>
          <td>
            <b>Id</b>
          </td>
          <td>
            <b>Description</b>
          </td>
          <td>
            <b>Status</b>
          </td>
          <td>
            <b>Notes</b>
          </td>
          <td>
            <b>Concern</b>
          </td>
        </tr>
        <tr>
          <td> </td>
          <td>Elimination of the spenoid bone tumor</td>
          <td>INPROGRESS</td>
          <td> </td>
          <td> </td>
        </tr>
      </table>
      <blockquote>
        <p>
          <b>activity</b>
        </p>
        <p>
          <b>status</b>: INPROGRESS
        </p>
        <p>
          <b>prohibited</b>: false
        </p>
        <p>
          <b>actionResulting</b>: 
          <a href="Procedure/f201">Roel&#39;s Chemotherapy. Generated Summary: COMPLETED; 
            <span title="Codes: {http://snomed.info/sct 367336001}">Chemotherapy</span>; 
            <span title="Codes: {http://snomed.info/sct 272676008}">Sphenoid bone</span>; 
            <span title="Codes: ">DiagnosticReport/f201</span>; performed: Jan 28, 2013 12:31:00 PM --&gt; Jan 28, 2013 1:27:00 PM; notes: Eerste neo-adjuvante TPF-kuur bij groot proces in sphenoid met intracraniale uitbreiding.
          </a>
        </p>
        <h3>Simples</h3>
        <table class="grid">
          <tr>
            <td>
              <b>Id</b>
            </td>
            <td>
              <b>Category</b>
            </td>
            <td>
              <b>Code</b>
            </td>
            <td>
              <b>Scheduled[x]</b>
            </td>
            <td>
              <b>Location</b>
            </td>
            <td>
              <b>Performer</b>
            </td>
            <td>
              <b>Product</b>
            </td>
            <td>
              <b>DailyAmount</b>
            </td>
            <td>
              <b>Quantity</b>
            </td>
            <td>
              <b>Details</b>
            </td>
          </tr>
          <tr>
            <td> </td>
            <td>PROCEDURE</td>
            <td>Chemotherapy 
              <span style="background: LightGoldenRodYellow ">(Details : {SNOMED CT code &#39;367336001&#39; = &#39;Chemotherapy&#39;, given as &#39;Chemotherapy&#39;})</span>
            </td>
            <td> </td>
            <td> </td>
            <td> </td>
            <td>name: TPF</td>
            <td> </td>
            <td> </td>
            <td> </td>
          </tr>
        </table>
      </blockquote>
    </div>
  </text>
  <contained>
    <Medication>
      <id value="doce"/>
      <name value="Docetaxel"/>
      <code>
        <coding>
          <system value="http://snomed.info/sct"/>
          <code value="108806006"/>
        </coding>
      </code>
    </Medication>
  </contained>
  <contained>
    <Medication>
      <id value="cisp"/>
      <name value="Cisplatin"/>
      <code>
        <coding>
          <system value="http://snomed.info/sct"/>
          <code value="57066004"/>
        </coding>
      </code>
    </Medication>
  </contained>
  <contained>
    <Medication>
      <id value="fluo"/>
      <name value="5-Fluorouracil"/>
      <code>
        <coding>
          <system value="http://snomed.info/sct"/>
          <code value="3127006"/>
        </coding>
      </code>
    </Medication>
  </contained>
  <contained>
    <Medication>
      <id value="tpf"/><!--  TPF consists of Docetaxel, Cisplatin and Fluorouracil  -->
      <name value="TPF"/>
      <product>
        <ingredient>
          <item>
            <reference value="#doce"/>
          </item>
        </ingredient>
        <ingredient>
          <item>
            <reference value="#cisp"/>
          </item>
        </ingredient>
        <ingredient>
          <item>
            <reference value="#fluo"/>
          </item>
        </ingredient>
      </product>
    </Medication>
  </contained>
  <patient><!--  It entails Roel's careplan  -->
    <reference value="Patient/f201"/>
    <display value="Roel"/>
  </patient>
  <status value="active"/>
  <concern>
    <reference value="Condition/f202"/>
    <display value="Roel&#39;s head-neck tumor"/>
  </concern>
  <participant>
    <role>
      <coding>
        <system value="http://snomed.info/sct"/>
        <code value="28995006"/>
        <display value="Treated with"/>
      </coding>
    </role>
    <member>
      <reference value="Practitioner/f201"/>
      <display value="Dokter Bronsig"/>
    </member>
  </participant>
  <goal>
    <description value="Elimination of the spenoid bone tumor"/>
    <status value="in-progress"/>
  </goal>
  <activity>
    <status value="in-progress"/>
    <prohibited value="false"/>
    <actionResulting>
      <reference value="Procedure/f201"/>
      <display value="Roel&#39;s Chemotherapy"/>
    </actionResulting>
    <simple>
      <category value="procedure"/>
      <code>
        <coding>
          <system value="http://snomed.info/sct"/>
          <code value="367336001"/>
          <display value="Chemotherapy"/>
        </coding>
      </code>
      <product>
        <reference value="#tpf"/>
      </product>
    </simple>
  </activity>
</CarePlan>